<?xml version="1.0" encoding="UTF-8"?>
<?xml-stylesheet type="text/xsl" href="Define/stylesheets/define2-1.xsl"?>
<ODM xmlns="http://www.cdisc.org/ns/odm/v1.3" xmlns:xlink="http://www.w3.org/1999/xlink" xmlns:def="http://www.cdisc.org/ns/def/v2.1"
  ODMVersion="1.3.2"
  FileOID="H2Q-MC-LZZT-define"
  FileType="Snapshot"
  CreationDateTime="2025-08-21T15:15:32"
  Originator="AutoGenerated"
  SourceSystem="cdisc-usdm-utils"
  SourceSystemVersion="1.0"
  def:Context="Other">
  <Study OID="H2Q-MC-LZZT">
    <GlobalVariables>
      <StudyName>LZZT</StudyName>
      <StudyDescription>LZZT</StudyDescription>
      <ProtocolName>H2Q-MC-LZZT</ProtocolName>
    </GlobalVariables>
  </Study>
  <MetaDataVersion OID="MDV.H2Q-MC-LZZT.01" Name="SDTM Metadata" def:DefineVersion="2.1.0" def:StandardName="SDTM" def:StandardVersion="3.3">
    <ItemGroupDef OID="IG.TA" Name="TA" Repeating="No" IsReferenceData="No" Domain="TA">
      <ItemRef ItemOID="IT.TA.STUDYID" OrderNumber="1" Mandatory="Yes" KeySequence="1"/>
      <ItemRef ItemOID="IT.TA.DOMAIN" OrderNumber="1" Mandatory="Yes" KeySequence="1"/>
      <ItemRef ItemOID="IT.TA.ARMCD" OrderNumber="1" Mandatory="Yes" KeySequence="1"/>
      <ItemRef ItemOID="IT.TA.ARM" OrderNumber="1" Mandatory="Yes" KeySequence="1"/>
      <ItemRef ItemOID="IT.TA.TAETORD" OrderNumber="1" Mandatory="Yes" KeySequence="1"/>
      <ItemRef ItemOID="IT.TA.ETCD" OrderNumber="1" Mandatory="Yes" KeySequence="1"/>
      <ItemRef ItemOID="IT.TA.ELEMENT" OrderNumber="1" Mandatory="Yes" KeySequence="1"/>
      <ItemRef ItemOID="IT.TA.TABRANCH" OrderNumber="1" Mandatory="Yes" KeySequence="1"/>
      <ItemRef ItemOID="IT.TA.TATRANS" OrderNumber="1" Mandatory="Yes" KeySequence="1"/>
      <ItemRef ItemOID="IT.TA.EPOCH" OrderNumber="1" Mandatory="Yes" KeySequence="1"/>
    </ItemGroupDef>
    <ItemDef OID="IT.TA.STUDYID" Name="STUDYID" DataType="text" Length="200"/>
    <ItemDef OID="IT.TA.DOMAIN" Name="DOMAIN" DataType="text" Length="200"/>
    <ItemDef OID="IT.TA.ARMCD" Name="ARMCD" DataType="text" Length="200"/>
    <ItemDef OID="IT.TA.ARM" Name="ARM" DataType="text" Length="200"/>
    <ItemDef OID="IT.TA.TAETORD" Name="TAETORD" DataType="text" Length="200"/>
    <ItemDef OID="IT.TA.ETCD" Name="ETCD" DataType="text" Length="200"/>
    <ItemDef OID="IT.TA.ELEMENT" Name="ELEMENT" DataType="text" Length="200"/>
    <ItemDef OID="IT.TA.TABRANCH" Name="TABRANCH" DataType="text" Length="200"/>
    <ItemDef OID="IT.TA.TATRANS" Name="TATRANS" DataType="text" Length="200"/>
    <ItemDef OID="IT.TA.EPOCH" Name="EPOCH" DataType="text" Length="200"/>
    <ItemGroupDef OID="IG.TE" Name="TE" Repeating="No" IsReferenceData="No" Domain="TE">
      <ItemRef ItemOID="IT.TE.STUDYID" OrderNumber="1" Mandatory="Yes" KeySequence="1"/>
      <ItemRef ItemOID="IT.TE.DOMAIN" OrderNumber="1" Mandatory="Yes" KeySequence="1"/>
      <ItemRef ItemOID="IT.TE.ETCD" OrderNumber="1" Mandatory="Yes" KeySequence="1"/>
      <ItemRef ItemOID="IT.TE.ELEMENT" OrderNumber="1" Mandatory="Yes" KeySequence="1"/>
      <ItemRef ItemOID="IT.TE.TESTRL" OrderNumber="1" Mandatory="Yes" KeySequence="1"/>
      <ItemRef ItemOID="IT.TE.TEENRL" OrderNumber="1" Mandatory="Yes" KeySequence="1"/>
      <ItemRef ItemOID="IT.TE.TEDUR" OrderNumber="1" Mandatory="Yes" KeySequence="1"/>
    </ItemGroupDef>
    <ItemDef OID="IT.TE.STUDYID" Name="STUDYID" DataType="text" Length="200"/>
    <ItemDef OID="IT.TE.DOMAIN" Name="DOMAIN" DataType="text" Length="200"/>
    <ItemDef OID="IT.TE.ETCD" Name="ETCD" DataType="text" Length="200"/>
    <ItemDef OID="IT.TE.ELEMENT" Name="ELEMENT" DataType="text" Length="200"/>
    <ItemDef OID="IT.TE.TESTRL" Name="TESTRL" DataType="text" Length="200"/>
    <ItemDef OID="IT.TE.TEENRL" Name="TEENRL" DataType="text" Length="200"/>
    <ItemDef OID="IT.TE.TEDUR" Name="TEDUR" DataType="text" Length="200"/>
    <ItemGroupDef OID="IG.TI" Name="TI" Repeating="No" IsReferenceData="No" Domain="TI">
      <ItemRef ItemOID="IT.TI.STUDYID" OrderNumber="1" Mandatory="Yes" KeySequence="1"/>
      <ItemRef ItemOID="IT.TI.DOMAIN" OrderNumber="1" Mandatory="Yes" KeySequence="1"/>
      <ItemRef ItemOID="IT.TI.IETESTCD" OrderNumber="1" Mandatory="Yes" KeySequence="1"/>
      <ItemRef ItemOID="IT.TI.IETEST" OrderNumber="1" Mandatory="Yes" KeySequence="1"/>
      <ItemRef ItemOID="IT.TI.IECAT" OrderNumber="1" Mandatory="Yes" KeySequence="1"/>
      <ItemRef ItemOID="IT.TI.IESCAT" OrderNumber="1" Mandatory="Yes" KeySequence="1"/>
      <ItemRef ItemOID="IT.TI.TIRL" OrderNumber="1" Mandatory="Yes" KeySequence="1"/>
      <ItemRef ItemOID="IT.TI.TIVERS" OrderNumber="1" Mandatory="Yes" KeySequence="1"/>
    </ItemGroupDef>
    <ItemDef OID="IT.TI.STUDYID" Name="STUDYID" DataType="text" Length="200"/>
    <ItemDef OID="IT.TI.DOMAIN" Name="DOMAIN" DataType="text" Length="200"/>
    <ItemDef OID="IT.TI.IETESTCD" Name="IETESTCD" DataType="text" Length="200"/>
    <ItemDef OID="IT.TI.IETEST" Name="IETEST" DataType="text" Length="200"/>
    <ItemDef OID="IT.TI.IECAT" Name="IECAT" DataType="text" Length="200"/>
    <ItemDef OID="IT.TI.IESCAT" Name="IESCAT" DataType="text" Length="200"/>
    <ItemDef OID="IT.TI.TIRL" Name="TIRL" DataType="text" Length="200"/>
    <ItemDef OID="IT.TI.TIVERS" Name="TIVERS" DataType="text" Length="200"/>
    <ItemGroupDef OID="IG.TS" Name="TS" Repeating="No" IsReferenceData="No" Domain="TS">
      <ItemRef ItemOID="IT.TS.STUDYID" OrderNumber="1" Mandatory="Yes" KeySequence="1"/>
      <ItemRef ItemOID="IT.TS.DOMAIN" OrderNumber="1" Mandatory="Yes" KeySequence="1"/>
      <ItemRef ItemOID="IT.TS.TSSEQ" OrderNumber="1" Mandatory="Yes" KeySequence="1"/>
      <ItemRef ItemOID="IT.TS.TSGRPID" OrderNumber="1" Mandatory="Yes" KeySequence="1"/>
      <ItemRef ItemOID="IT.TS.TSPARMCD" OrderNumber="1" Mandatory="Yes" KeySequence="1"/>
      <ItemRef ItemOID="IT.TS.TSPARM" OrderNumber="1" Mandatory="Yes" KeySequence="1"/>
      <ItemRef ItemOID="IT.TS.TSVAL" OrderNumber="1" Mandatory="Yes" KeySequence="1"/>
      <ItemRef ItemOID="IT.TS.TSVALNF" OrderNumber="1" Mandatory="Yes" KeySequence="1"/>
      <ItemRef ItemOID="IT.TS.TSVALCD" OrderNumber="1" Mandatory="Yes" KeySequence="1"/>
      <ItemRef ItemOID="IT.TS.TSVCDREF" OrderNumber="1" Mandatory="Yes" KeySequence="1"/>
      <ItemRef ItemOID="IT.TS.TSVCDVER" OrderNumber="1" Mandatory="Yes" KeySequence="1"/>
    </ItemGroupDef>
    <ItemDef OID="IT.TS.STUDYID" Name="STUDYID" DataType="text" Length="200"/>
    <ItemDef OID="IT.TS.DOMAIN" Name="DOMAIN" DataType="text" Length="200"/>
    <ItemDef OID="IT.TS.TSSEQ" Name="TSSEQ" DataType="text" Length="200"/>
    <ItemDef OID="IT.TS.TSGRPID" Name="TSGRPID" DataType="text" Length="200"/>
    <ItemDef OID="IT.TS.TSPARMCD" Name="TSPARMCD" DataType="text" Length="200"/>
    <ItemDef OID="IT.TS.TSPARM" Name="TSPARM" DataType="text" Length="200"/>
    <ItemDef OID="IT.TS.TSVAL" Name="TSVAL" DataType="text" Length="200"/>
    <ItemDef OID="IT.TS.TSVALNF" Name="TSVALNF" DataType="text" Length="200"/>
    <ItemDef OID="IT.TS.TSVALCD" Name="TSVALCD" DataType="text" Length="200"/>
    <ItemDef OID="IT.TS.TSVCDREF" Name="TSVCDREF" DataType="text" Length="200"/>
    <ItemDef OID="IT.TS.TSVCDVER" Name="TSVCDVER" DataType="text" Length="200"/>
    <ItemGroupDef OID="IG.TV" Name="TV" Repeating="No" IsReferenceData="No" Domain="TV">
      <ItemRef ItemOID="IT.TV.STUDYID" OrderNumber="1" Mandatory="Yes" KeySequence="1"/>
      <ItemRef ItemOID="IT.TV.DOMAIN" OrderNumber="1" Mandatory="Yes" KeySequence="1"/>
      <ItemRef ItemOID="IT.TV.VISITNUM" OrderNumber="1" Mandatory="Yes" KeySequence="1"/>
      <ItemRef ItemOID="IT.TV.VISIT" OrderNumber="1" Mandatory="Yes" KeySequence="1"/>
      <ItemRef ItemOID="IT.TV.VISITDY" OrderNumber="1" Mandatory="Yes" KeySequence="1"/>
      <ItemRef ItemOID="IT.TV.ARMCD" OrderNumber="1" Mandatory="Yes" KeySequence="1"/>
      <ItemRef ItemOID="IT.TV.ARM" OrderNumber="1" Mandatory="Yes" KeySequence="1"/>
      <ItemRef ItemOID="IT.TV.TVSTRL" OrderNumber="1" Mandatory="Yes" KeySequence="1"/>
      <ItemRef ItemOID="IT.TV.TVENRL" OrderNumber="1" Mandatory="Yes" KeySequence="1"/>
    </ItemGroupDef>
    <ItemDef OID="IT.TV.STUDYID" Name="STUDYID" DataType="text" Length="200"/>
    <ItemDef OID="IT.TV.DOMAIN" Name="DOMAIN" DataType="text" Length="200"/>
    <ItemDef OID="IT.TV.VISITNUM" Name="VISITNUM" DataType="text" Length="200"/>
    <ItemDef OID="IT.TV.VISIT" Name="VISIT" DataType="text" Length="200"/>
    <ItemDef OID="IT.TV.VISITDY" Name="VISITDY" DataType="text" Length="200"/>
    <ItemDef OID="IT.TV.ARMCD" Name="ARMCD" DataType="text" Length="200"/>
    <ItemDef OID="IT.TV.ARM" Name="ARM" DataType="text" Length="200"/>
    <ItemDef OID="IT.TV.TVSTRL" Name="TVSTRL" DataType="text" Length="200"/>
    <ItemDef OID="IT.TV.TVENRL" Name="TVENRL" DataType="text" Length="200"/>


  <def:Standards>
      <def:Standard OID="STD.1" Name="STDTMIG" Type="IG" Version="3.3" Status="Final" def:CommentOID="COM.ST1"/>
      <def:Standard OID="STD.2_1" Name="SDTMIG-MD" Type="IG" Version="1.1" Status="Final" def:CommentOID="COM.ST2"/>
      <def:Standard OID="STD.4" Name="CDISC/NCI" Type="CT" PublishingSet="DEFINE-XML" Version="2020-12-18" Status="Final" def:CommentOID="COM.ST4"/>
      <def:Standard OID="STD.3" Name="CDISC/NCI" Type="CT" PublishingSet="SDTM" Version="2020-12-18" Status="Final" def:CommentOID="COM.ST3"/>
  </def:Standards>

      


      <def:SupplementalDoc>
        <def:DocumentRef leafID="LF.csdrg"/>
      </def:SupplementalDoc>

      


      <def:ValueListDef OID="VL.AETERM">
        <ItemRef ItemOID="IT.AE.AETERM.1" OrderNumber="1" Mandatory="Yes">
          <def:WhereClauseRef WhereClauseOID="WC.AETERM1"/>
        </ItemRef>
        <ItemRef ItemOID="IT.AE.AETERM.2" OrderNumber="2" Mandatory="Yes">
          <def:WhereClauseRef WhereClauseOID="WC.AETERM2"/>
        </ItemRef>
      </def:ValueListDef>
      
<def:ValueListDef OID="VL.DSDECOD">
        <ItemRef ItemOID="IT.DS.DSDECOD.3" OrderNumber="1" Mandatory="No">
          <def:WhereClauseRef WhereClauseOID="WC.DSDECOD1"/>
        </ItemRef>
        <ItemRef ItemOID="IT.DS.DSDECOD.4" OrderNumber="2" Mandatory="No">
          <def:WhereClauseRef WhereClauseOID="WC.DSDECOD2"/>
        </ItemRef>
      </def:ValueListDef>
      
<def:ValueListDef OID="VL.DSTERM">
        <ItemRef ItemOID="IT.DS.DSTERM.1" OrderNumber="1" Mandatory="No">
          <def:WhereClauseRef WhereClauseOID="WC.DSTERM1"/>
        </ItemRef>
        <ItemRef ItemOID="IT.DS.DSTERM.2" OrderNumber="2" Mandatory="No">
          <def:WhereClauseRef WhereClauseOID="WC.DSTERM2"/>
        </ItemRef>
      </def:ValueListDef>
      
<def:ValueListDef OID="VL.FAORRES">
        <ItemRef ItemOID="IT.FA.FAORRES.1" OrderNumber="1" Mandatory="No">
          <def:WhereClauseRef WhereClauseOID="WC.FASEV"/>
        </ItemRef>
        <ItemRef ItemOID="IT.FA.FAORRES.2" OrderNumber="2" Mandatory="No">
          <def:WhereClauseRef WhereClauseOID="WC.FAOCCUR"/>
        </ItemRef>
      </def:ValueListDef>
      
<def:ValueListDef OID="VL.FASTRESC">
        <ItemRef ItemOID="IT.FA.FASTRESC.1" OrderNumber="1" Mandatory="No">
          <def:WhereClauseRef WhereClauseOID="WC.FASEV"/>
        </ItemRef>
        <ItemRef ItemOID="IT.FA.FASTRESC.2" OrderNumber="2" Mandatory="No">
          <def:WhereClauseRef WhereClauseOID="WC.FAOCCUR"/>
        </ItemRef>
      </def:ValueListDef>
      
<def:ValueListDef OID="VL.FTORRES">
        <ItemRef ItemOID="IT.FT.FTORRES.1" OrderNumber="1" Mandatory="No">
          <def:WhereClauseRef WhereClauseOID="WC.AVL0201-15"/>
        </ItemRef>
        <ItemRef ItemOID="IT.FT.FTORRES.2" OrderNumber="2" Mandatory="No">
          <def:WhereClauseRef WhereClauseOID="WC.AVL0216-17"/>
        </ItemRef>
        <ItemRef ItemOID="IT.FT.FTORRES.3" OrderNumber="3" Mandatory="No">
          <def:WhereClauseRef WhereClauseOID="WC.AVL0218-32"/>
        </ItemRef>
        <ItemRef ItemOID="IT.FT.FTORRES.4" OrderNumber="4" Mandatory="No">
          <def:WhereClauseRef WhereClauseOID="WC.AVL0233-34"/>
        </ItemRef>
      </def:ValueListDef>
      
<def:ValueListDef OID="VL.LBORRES">
        <ItemRef ItemOID="IT.LB.LBORRES.1" OrderNumber="1" Mandatory="No">
          <def:WhereClauseRef WhereClauseOID="WC.LB_ORRES_SET1"/>
        </ItemRef>
        <ItemRef ItemOID="IT.LB.LBORRES.2" OrderNumber="2" Mandatory="No">
          <def:WhereClauseRef WhereClauseOID="WC.LB_ORRES_SET2"/>
        </ItemRef>
        <ItemRef ItemOID="IT.LB.LBORRES.3" OrderNumber="3" Mandatory="No">
          <def:WhereClauseRef WhereClauseOID="WC.LB_ORRES_SET3"/>
        </ItemRef>
        <ItemRef ItemOID="IT.LB.LBORRES.4" OrderNumber="4" Mandatory="No">
          <def:WhereClauseRef WhereClauseOID="WC.LB_ORRES_SPGRAV"/>
        </ItemRef>
        <ItemRef ItemOID="IT.LB.LBORRES.5" OrderNumber="5" Mandatory="No">
          <def:WhereClauseRef WhereClauseOID="WC.LB_ORRES_SET4"/>
        </ItemRef>
        <ItemRef ItemOID="IT.LB.LBORRES.6" OrderNumber="6" Mandatory="No">
          <def:WhereClauseRef WhereClauseOID="WC.LB_ORRES_SET5"/>
        </ItemRef>
        <ItemRef ItemOID="IT.LB.LBORRES.7" OrderNumber="7" Mandatory="No">
          <def:WhereClauseRef WhereClauseOID="WC.LB_ORRES_SET6"/>
        </ItemRef>
        <ItemRef ItemOID="IT.LB.LBORRES.8" OrderNumber="8" Mandatory="No">
          <def:WhereClauseRef WhereClauseOID="WC.LB_ORRES_COLOR"/>
        </ItemRef>
        <ItemRef ItemOID="IT.LB.LBORRES.9" OrderNumber="9" Mandatory="No">
          <def:WhereClauseRef WhereClauseOID="WC.LB_ORRES_GLUC"/>
        </ItemRef>
      </def:ValueListDef>
      
<def:ValueListDef OID="VL.LBORRESU">
        <ItemRef ItemOID="IT.LB.LBORRESU.1" OrderNumber="1" Mandatory="No">
          <def:WhereClauseRef WhereClauseOID="WC.LB_ORRESU_UNITS_ALT"/>
        </ItemRef>
        <ItemRef ItemOID="IT.LB.LBORRESU.2" OrderNumber="2" Mandatory="No">
          <def:WhereClauseRef WhereClauseOID="WC.LB_ORRESU_UNITS_ALB"/>
        </ItemRef>
        <ItemRef ItemOID="IT.LB.LBORRESU.3" OrderNumber="3" Mandatory="No">
          <def:WhereClauseRef WhereClauseOID="WC.LB_ORRESU_UNITS_ALP"/>
        </ItemRef>
        <ItemRef ItemOID="IT.LB.LBORRESU.4" OrderNumber="4" Mandatory="No">
          <def:WhereClauseRef WhereClauseOID="WC.LB_ORRESU_UNITS_AST"/>
        </ItemRef>
        <ItemRef ItemOID="IT.LB.LBORRESU.5" OrderNumber="5" Mandatory="No">
          <def:WhereClauseRef WhereClauseOID="WC.LB_ORRESU_UNITS_BASO"/>
        </ItemRef>
        <ItemRef ItemOID="IT.LB.LBORRESU.6" OrderNumber="6" Mandatory="No">
          <def:WhereClauseRef WhereClauseOID="WC.LB_ORRESU_UNITS_BILI"/>
        </ItemRef>
        <ItemRef ItemOID="IT.LB.LBORRESU.7" OrderNumber="7" Mandatory="No">
          <def:WhereClauseRef WhereClauseOID="WC.LB_ORRESU_UNITS_CA"/>
        </ItemRef>
        <ItemRef ItemOID="IT.LB.LBORRESU.8" OrderNumber="8" Mandatory="No">
          <def:WhereClauseRef WhereClauseOID="WC.LB_ORRESU_UNITS_CL"/>
        </ItemRef>
        <ItemRef ItemOID="IT.LB.LBORRESU.9" OrderNumber="9" Mandatory="No">
          <def:WhereClauseRef WhereClauseOID="WC.LB_ORRESU_UNITS_CHOL"/>
        </ItemRef>
        <ItemRef ItemOID="IT.LB.LBORRESU.10" OrderNumber="10" Mandatory="No">
          <def:WhereClauseRef WhereClauseOID="WC.LB_ORRESU_UNITS_CK"/>
        </ItemRef>
        <ItemRef ItemOID="IT.LB.LBORRESU.11" OrderNumber="11" Mandatory="No">
          <def:WhereClauseRef WhereClauseOID="WC.LB_ORRESU_UNITS_CREAT"/>
        </ItemRef>
        <ItemRef ItemOID="IT.LB.LBORRESU.12" OrderNumber="12" Mandatory="No">
          <def:WhereClauseRef WhereClauseOID="WC.LB_ORRESU_UNITS_EOS"/>
        </ItemRef>
        <ItemRef ItemOID="IT.LB.LBORRESU.13" OrderNumber="13" Mandatory="No">
          <def:WhereClauseRef WhereClauseOID="WC.LB_ORRESU_UNITS_MCH"/>
        </ItemRef>
        <ItemRef ItemOID="IT.LB.LBORRESU.14" OrderNumber="14" Mandatory="No">
          <def:WhereClauseRef WhereClauseOID="WC.LB_ORRESU_UNITS_MCHC"/>
        </ItemRef>
        <ItemRef ItemOID="IT.LB.LBORRESU.15" OrderNumber="15" Mandatory="No">
          <def:WhereClauseRef WhereClauseOID="WC.LB_ORRESU_UNITS_MCV"/>
        </ItemRef>
        <ItemRef ItemOID="IT.LB.LBORRESU.16" OrderNumber="16" Mandatory="No">
          <def:WhereClauseRef WhereClauseOID="WC.LB_ORRESU_UNITS_RBC"/>
        </ItemRef>
        <ItemRef ItemOID="IT.LB.LBORRESU.17" OrderNumber="17" Mandatory="No">
          <def:WhereClauseRef WhereClauseOID="WC.LB_ORRESU_UNITS_GGT"/>
        </ItemRef>
        <ItemRef ItemOID="IT.LB.LBORRESU.18" OrderNumber="18" Mandatory="No">
          <def:WhereClauseRef WhereClauseOID="WC.LB_ORRESU_UNITS_GLUC"/>
        </ItemRef>
        <ItemRef ItemOID="IT.LB.LBORRESU.19" OrderNumber="19" Mandatory="No">
          <def:WhereClauseRef WhereClauseOID="WC.LB_ORRESU_UNITS_HCT"/>
        </ItemRef>
        <ItemRef ItemOID="IT.LB.LBORRESU.20" OrderNumber="20" Mandatory="No">
          <def:WhereClauseRef WhereClauseOID="WC.LB_ORRESU_UNITS_HGB"/>
        </ItemRef>
        <ItemRef ItemOID="IT.LB.LBORRESU.21" OrderNumber="21" Mandatory="No">
          <def:WhereClauseRef WhereClauseOID="WC.LB_ORRESU_UNITS_WBC"/>
        </ItemRef>
        <ItemRef ItemOID="IT.LB.LBORRESU.22" OrderNumber="22" Mandatory="No">
          <def:WhereClauseRef WhereClauseOID="WC.LB_ORRESU_UNITS_LYM"/>
        </ItemRef>
        <ItemRef ItemOID="IT.LB.LBORRESU.23" OrderNumber="23" Mandatory="No">
          <def:WhereClauseRef WhereClauseOID="WC.LB_ORRESU_UNITS_MONO"/>
        </ItemRef>
        <ItemRef ItemOID="IT.LB.LBORRESU.24" OrderNumber="24" Mandatory="No">
          <def:WhereClauseRef WhereClauseOID="WC.LB_ORRESU_UNITS_PHOS"/>
        </ItemRef>
        <ItemRef ItemOID="IT.LB.LBORRESU.25" OrderNumber="25" Mandatory="No">
          <def:WhereClauseRef WhereClauseOID="WC.LB_ORRESU_UNITS_PLAT"/>
        </ItemRef>
        <ItemRef ItemOID="IT.LB.LBORRESU.26" OrderNumber="26" Mandatory="No">
          <def:WhereClauseRef WhereClauseOID="WC.LB_ORRESU_UNITS_K"/>
        </ItemRef>
        <ItemRef ItemOID="IT.LB.LBORRESU.27" OrderNumber="27" Mandatory="No">
          <def:WhereClauseRef WhereClauseOID="WC.LB_ORRESU_UNITS_PROT"/>
        </ItemRef>
        <ItemRef ItemOID="IT.LB.LBORRESU.28" OrderNumber="28" Mandatory="No">
          <def:WhereClauseRef WhereClauseOID="WC.LB_ORRESU_UNITS_SODIUM"/>
        </ItemRef>
        <ItemRef ItemOID="IT.LB.LBORRESU.29" OrderNumber="29" Mandatory="No">
          <def:WhereClauseRef WhereClauseOID="WC.LB_ORRESU_UNITS_TSH"/>
        </ItemRef>
        <ItemRef ItemOID="IT.LB.LBORRESU.30" OrderNumber="30" Mandatory="No">
          <def:WhereClauseRef WhereClauseOID="WC.LB_ORRESU_UNITS_URATE"/>
        </ItemRef>
        <ItemRef ItemOID="IT.LB.LBORRESU.31" OrderNumber="31" Mandatory="No">
          <def:WhereClauseRef WhereClauseOID="WC.LB_ORRESU_UNITS_UREAN"/>
        </ItemRef>
        <ItemRef ItemOID="IT.LB.LBORRESU.32" OrderNumber="32" Mandatory="No">
          <def:WhereClauseRef WhereClauseOID="WC.LB_ORRESU_UNITS_VITB12"/>
        </ItemRef>
      </def:ValueListDef>
      
<def:ValueListDef OID="VL.LBSTRESC">
        <ItemRef ItemOID="IT.LB.LBSTRESC.1" OrderNumber="1" Mandatory="No">
          <def:WhereClauseRef WhereClauseOID="WC.LB_STRESC_K"/>
        </ItemRef>
        <ItemRef ItemOID="IT.LB.LBSTRESC.2" OrderNumber="2" Mandatory="No">
          <def:WhereClauseRef WhereClauseOID="WC.LB_STRESC_RBC"/>
        </ItemRef>
        <ItemRef ItemOID="IT.LB.LBSTRESC.3" OrderNumber="3" Mandatory="No">
          <def:WhereClauseRef WhereClauseOID="WC.LB_STRESC_SET1"/>
        </ItemRef>
        <ItemRef ItemOID="IT.LB.LBSTRESC.4" OrderNumber="4" Mandatory="No">
          <def:WhereClauseRef WhereClauseOID="WC.LB_STRESC_BILI"/>
        </ItemRef>
        <ItemRef ItemOID="IT.LB.LBSTRESC.5" OrderNumber="5" Mandatory="No">
          <def:WhereClauseRef WhereClauseOID="WC.LB_STRESC_SET2"/>
        </ItemRef>
        <ItemRef ItemOID="IT.LB.LBSTRESC.6" OrderNumber="6" Mandatory="No">
          <def:WhereClauseRef WhereClauseOID="WC.LB_STRESC_CREAT"/>
        </ItemRef>
        <ItemRef ItemOID="IT.LB.LBSTRESC.7" OrderNumber="7" Mandatory="No">
          <def:WhereClauseRef WhereClauseOID="WC.LB_STRESC_URATE"/>
        </ItemRef>
        <ItemRef ItemOID="IT.LB.LBSTRESC.8" OrderNumber="8" Mandatory="No">
          <def:WhereClauseRef WhereClauseOID="WC.LB_STRESC_MCHC"/>
        </ItemRef>
        <ItemRef ItemOID="IT.LB.LBSTRESC.9" OrderNumber="9" Mandatory="No">
          <def:WhereClauseRef WhereClauseOID="WC.LB_STRESC_SET3"/>
        </ItemRef>
        <ItemRef ItemOID="IT.LB.LBSTRESC.10" OrderNumber="10" Mandatory="No">
          <def:WhereClauseRef WhereClauseOID="WC.LB_STRESC_VITB12"/>
        </ItemRef>
        <ItemRef ItemOID="IT.LB.LBSTRESC.11" OrderNumber="11" Mandatory="No">
          <def:WhereClauseRef WhereClauseOID="WC.LB_STRESC_HGB"/>
        </ItemRef>
        <ItemRef ItemOID="IT.LB.LBSTRESC.12" OrderNumber="12" Mandatory="No">
          <def:WhereClauseRef WhereClauseOID="WC.LB_STRESC_SET4"/>
        </ItemRef>
        <ItemRef ItemOID="IT.LB.LBSTRESC.13" OrderNumber="13" Mandatory="No">
          <def:WhereClauseRef WhereClauseOID="WC.LB_STRESC_SET5"/>
        </ItemRef>
        <ItemRef ItemOID="IT.LB.LBSTRESC.14" OrderNumber="14" Mandatory="No">
          <def:WhereClauseRef WhereClauseOID="WC.LB_STRESC_SET6"/>
        </ItemRef>
        <ItemRef ItemOID="IT.LB.LBSTRESC.15" OrderNumber="15" Mandatory="No">
          <def:WhereClauseRef WhereClauseOID="WC.LB_STRESC_CK"/>
        </ItemRef>
        <ItemRef ItemOID="IT.LB.LBSTRESC.16" OrderNumber="16" Mandatory="No">
          <def:WhereClauseRef WhereClauseOID="WC.LB_STRESC_COLOR"/>
        </ItemRef>
        <ItemRef ItemOID="IT.LB.LBSTRESC.17" OrderNumber="17" Mandatory="No">
          <def:WhereClauseRef WhereClauseOID="WC.LB_STRESC_GLUC"/>
        </ItemRef>
      </def:ValueListDef>
      
<def:ValueListDef OID="VL.LBSTRESU">
        <ItemRef ItemOID="IT.LB.LBSTRESU.1" OrderNumber="1" Mandatory="No">
          <def:WhereClauseRef WhereClauseOID="WC.LB_STRESU_UNITS_ALT_STD"/>
        </ItemRef>
        <ItemRef ItemOID="IT.LB.LBSTRESU.2" OrderNumber="2" Mandatory="No">
          <def:WhereClauseRef WhereClauseOID="WC.LB_STRESU_UNITS_ALB_STD"/>
        </ItemRef>
        <ItemRef ItemOID="IT.LB.LBSTRESU.3" OrderNumber="3" Mandatory="No">
          <def:WhereClauseRef WhereClauseOID="WC.LB_STRESU_UNITS_ALP_STD"/>
        </ItemRef>
        <ItemRef ItemOID="IT.LB.LBSTRESU.4" OrderNumber="4" Mandatory="No">
          <def:WhereClauseRef WhereClauseOID="WC.LB_STRESU_UNITS_AST_STD"/>
        </ItemRef>
        <ItemRef ItemOID="IT.LB.LBSTRESU.5" OrderNumber="5" Mandatory="No">
          <def:WhereClauseRef WhereClauseOID="WC.LB_STRESU_UNITS_BASO_STD"/>
        </ItemRef>
        <ItemRef ItemOID="IT.LB.LBSTRESU.6" OrderNumber="6" Mandatory="No">
          <def:WhereClauseRef WhereClauseOID="WC.LB_STRESU_UNITS_BILI_STD"/>
        </ItemRef>
        <ItemRef ItemOID="IT.LB.LBSTRESU.7" OrderNumber="7" Mandatory="No">
          <def:WhereClauseRef WhereClauseOID="WC.LB_STRESU_UNITS_CA_STD"/>
        </ItemRef>
        <ItemRef ItemOID="IT.LB.LBSTRESU.8" OrderNumber="8" Mandatory="No">
          <def:WhereClauseRef WhereClauseOID="WC.LB_STRESU_UNITS_CL_STD"/>
        </ItemRef>
        <ItemRef ItemOID="IT.LB.LBSTRESU.9" OrderNumber="9" Mandatory="No">
          <def:WhereClauseRef WhereClauseOID="WC.LB_STRESU_UNITS_CHOL_STD"/>
        </ItemRef>
        <ItemRef ItemOID="IT.LB.LBSTRESU.10" OrderNumber="10" Mandatory="No">
          <def:WhereClauseRef WhereClauseOID="WC.LB_STRESU_UNITS_CK_STD"/>
        </ItemRef>
        <ItemRef ItemOID="IT.LB.LBSTRESU.11" OrderNumber="11" Mandatory="No">
          <def:WhereClauseRef WhereClauseOID="WC.LB_STRESU_UNITS_CREAT_STD"/>
        </ItemRef>
        <ItemRef ItemOID="IT.LB.LBSTRESU.12" OrderNumber="12" Mandatory="No">
          <def:WhereClauseRef WhereClauseOID="WC.LB_STRESU_UNITS_EOS_STD"/>
        </ItemRef>
        <ItemRef ItemOID="IT.LB.LBSTRESU.13" OrderNumber="13" Mandatory="No">
          <def:WhereClauseRef WhereClauseOID="WC.LB_STRESU_UNITS_MCH_STD"/>
        </ItemRef>
        <ItemRef ItemOID="IT.LB.LBSTRESU.14" OrderNumber="14" Mandatory="No">
          <def:WhereClauseRef WhereClauseOID="WC.LB_STRESU_UNITS_MCHC_STD"/>
        </ItemRef>
        <ItemRef ItemOID="IT.LB.LBSTRESU.15" OrderNumber="15" Mandatory="No">
          <def:WhereClauseRef WhereClauseOID="WC.LB_STRESU_UNITS_MCV_STD"/>
        </ItemRef>
        <ItemRef ItemOID="IT.LB.LBSTRESU.16" OrderNumber="16" Mandatory="No">
          <def:WhereClauseRef WhereClauseOID="WC.LB_STRESU_UNITS_RBC_STD"/>
        </ItemRef>
        <ItemRef ItemOID="IT.LB.LBSTRESU.17" OrderNumber="17" Mandatory="No">
          <def:WhereClauseRef WhereClauseOID="WC.LB_STRESU_UNITS_GGT_STD"/>
        </ItemRef>
        <ItemRef ItemOID="IT.LB.LBSTRESU.18" OrderNumber="18" Mandatory="No">
          <def:WhereClauseRef WhereClauseOID="WC.LB_STRESU_UNITS_GLUC_STD"/>
        </ItemRef>
        <ItemRef ItemOID="IT.LB.LBSTRESU.19" OrderNumber="19" Mandatory="No">
          <def:WhereClauseRef WhereClauseOID="WC.LB_STRESU_UNITS_HGB_STD"/>
        </ItemRef>
        <ItemRef ItemOID="IT.LB.LBSTRESU.20" OrderNumber="20" Mandatory="No">
          <def:WhereClauseRef WhereClauseOID="WC.LB_STRESU_UNITS_WBC_STD"/>
        </ItemRef>
        <ItemRef ItemOID="IT.LB.LBSTRESU.21" OrderNumber="21" Mandatory="No">
          <def:WhereClauseRef WhereClauseOID="WC.LB_STRESU_UNITS_LYM_STD"/>
        </ItemRef>
        <ItemRef ItemOID="IT.LB.LBSTRESU.22" OrderNumber="22" Mandatory="No">
          <def:WhereClauseRef WhereClauseOID="WC.LB_STRESU_UNITS_MONO_STD"/>
        </ItemRef>
        <ItemRef ItemOID="IT.LB.LBSTRESU.23" OrderNumber="23" Mandatory="No">
          <def:WhereClauseRef WhereClauseOID="WC.LB_STRESU_UNITS_PHOS_STD"/>
        </ItemRef>
        <ItemRef ItemOID="IT.LB.LBSTRESU.24" OrderNumber="24" Mandatory="No">
          <def:WhereClauseRef WhereClauseOID="WC.LB_STRESU_UNITS_PLAT_STD"/>
        </ItemRef>
        <ItemRef ItemOID="IT.LB.LBSTRESU.25" OrderNumber="25" Mandatory="No">
          <def:WhereClauseRef WhereClauseOID="WC.LB_STRESU_UNITS_K_STD"/>
        </ItemRef>
        <ItemRef ItemOID="IT.LB.LBSTRESU.26" OrderNumber="26" Mandatory="No">
          <def:WhereClauseRef WhereClauseOID="WC.LB_STRESU_UNITS_PROT_STD"/>
        </ItemRef>
        <ItemRef ItemOID="IT.LB.LBSTRESU.27" OrderNumber="27" Mandatory="No">
          <def:WhereClauseRef WhereClauseOID="WC.LB_STRESU_UNITS_SODIUM_STD"/>
        </ItemRef>
        <ItemRef ItemOID="IT.LB.LBSTRESU.28" OrderNumber="28" Mandatory="No">
          <def:WhereClauseRef WhereClauseOID="WC.LB_STRESU_UNITS_TSH_STD"/>
        </ItemRef>
        <ItemRef ItemOID="IT.LB.LBSTRESU.29" OrderNumber="29" Mandatory="No">
          <def:WhereClauseRef WhereClauseOID="WC.LB_STRESU_UNITS_URATE_STD"/>
        </ItemRef>
        <ItemRef ItemOID="IT.LB.LBSTRESU.30" OrderNumber="30" Mandatory="No">
          <def:WhereClauseRef WhereClauseOID="WC.LB_STRESU_UNITS_UREAN_STD"/>
        </ItemRef>
        <ItemRef ItemOID="IT.LB.LBSTRESU.31" OrderNumber="31" Mandatory="No">
          <def:WhereClauseRef WhereClauseOID="WC.LB_STRESU_UNITS_VITB12_STD"/>
        </ItemRef>
      </def:ValueListDef>
      
<def:ValueListDef OID="VL.OEORRES">
        <ItemRef ItemOID="IT.OE.OEORRES.1" OrderNumber="1" Mandatory="No">
          <def:WhereClauseRef WhereClauseOID="WC.OEORRES1"/>
        </ItemRef>
        <ItemRef ItemOID="IT.OE.OEORRES.2" OrderNumber="2" Mandatory="No">
          <def:WhereClauseRef WhereClauseOID="WC.OEORRES2"/>
        </ItemRef>
      </def:ValueListDef>
      
<def:ValueListDef OID="VL.QSORRES_PHQ">
        <ItemRef ItemOID="IT.QSPH.QSORRES.1" OrderNumber="1" Mandatory="Yes">
          <def:WhereClauseRef WhereClauseOID="WC.PHQ0101-09"/>
        </ItemRef>
        <ItemRef ItemOID="IT.QSPH.QSORRES.2" OrderNumber="2" Mandatory="Yes">
          <def:WhereClauseRef WhereClauseOID="WC.PHQ0110"/>
        </ItemRef>
        <ItemRef ItemOID="IT.QSPH.QSORRES.3" OrderNumber="3" Mandatory="Yes">
          <def:WhereClauseRef WhereClauseOID="WC.PHQ0111"/>
        </ItemRef>
      </def:ValueListDef>
      
<def:ValueListDef OID="VL.QSSTRESC_PHQ">
        <ItemRef ItemOID="IT.QSPH.QSSTRESC.1" OrderNumber="1" Mandatory="Yes" MethodOID="MT.QSSTRESC_PH">
          <def:WhereClauseRef WhereClauseOID="WC.PHQ0101-09S"/>
        </ItemRef>
        <ItemRef ItemOID="IT.QSPH.QSSTRESC.2" OrderNumber="2" Mandatory="Yes" MethodOID="MT.QSSTRESC_PH_10_11">
          <def:WhereClauseRef WhereClauseOID="WC.PHQ0110S"/>
        </ItemRef>
        <ItemRef ItemOID="IT.QSPH.QSSTRESC.3" OrderNumber="3" Mandatory="Yes">
          <def:WhereClauseRef WhereClauseOID="WC.PHQ0111S"/>
        </ItemRef>
      </def:ValueListDef>
      
<def:ValueListDef OID="VL.RACE">
        <ItemRef ItemOID="IT.DM.RACE.1" OrderNumber="1" Mandatory="Yes">
          <def:WhereClauseRef WhereClauseOID="WC.RACE"/>
        </ItemRef>
        <ItemRef ItemOID="IT.DM.RACE.2" OrderNumber="2" Mandatory="Yes">
          <def:WhereClauseRef WhereClauseOID="WC.RACEMULT"/>
        </ItemRef>
      </def:ValueListDef>
      
<def:ValueListDef OID="VL.RSORRES">
        <ItemRef ItemOID="IT.RS.RSORRES.1" OrderNumber="1" Mandatory="No">
          <def:WhereClauseRef WhereClauseOID="WC.HAMD101"/>
        </ItemRef>
        <ItemRef ItemOID="IT.RS.RSORRES.2" OrderNumber="2" Mandatory="No">
          <def:WhereClauseRef WhereClauseOID="WC.HAMD102"/>
        </ItemRef>
        <ItemRef ItemOID="IT.RS.RSORRES.3" OrderNumber="3" Mandatory="No">
          <def:WhereClauseRef WhereClauseOID="WC.HAMD103"/>
        </ItemRef>
        <ItemRef ItemOID="IT.RS.RSORRES.4" OrderNumber="4" Mandatory="No">
          <def:WhereClauseRef WhereClauseOID="WC.HAMD104"/>
        </ItemRef>
        <ItemRef ItemOID="IT.RS.RSORRES.5" OrderNumber="5" Mandatory="No">
          <def:WhereClauseRef WhereClauseOID="WC.HAMD105"/>
        </ItemRef>
        <ItemRef ItemOID="IT.RS.RSORRES.6" OrderNumber="6" Mandatory="No">
          <def:WhereClauseRef WhereClauseOID="WC.HAMD106"/>
        </ItemRef>
        <ItemRef ItemOID="IT.RS.RSORRES.7" OrderNumber="7" Mandatory="No">
          <def:WhereClauseRef WhereClauseOID="WC.HAMD107"/>
        </ItemRef>
        <ItemRef ItemOID="IT.RS.RSORRES.8" OrderNumber="8" Mandatory="No">
          <def:WhereClauseRef WhereClauseOID="WC.HAMD108"/>
        </ItemRef>
        <ItemRef ItemOID="IT.RS.RSORRES.9" OrderNumber="9" Mandatory="No">
          <def:WhereClauseRef WhereClauseOID="WC.HAMD109"/>
        </ItemRef>
        <ItemRef ItemOID="IT.RS.RSORRES.10" OrderNumber="10" Mandatory="No">
          <def:WhereClauseRef WhereClauseOID="WC.HAMD110"/>
        </ItemRef>
        <ItemRef ItemOID="IT.RS.RSORRES.11" OrderNumber="11" Mandatory="No">
          <def:WhereClauseRef WhereClauseOID="WC.HAMD111"/>
        </ItemRef>
        <ItemRef ItemOID="IT.RS.RSORRES.12" OrderNumber="12" Mandatory="No">
          <def:WhereClauseRef WhereClauseOID="WC.HAMD112"/>
        </ItemRef>
        <ItemRef ItemOID="IT.RS.RSORRES.13" OrderNumber="13" Mandatory="No">
          <def:WhereClauseRef WhereClauseOID="WC.HAMD113"/>
        </ItemRef>
        <ItemRef ItemOID="IT.RS.RSORRES.14" OrderNumber="14" Mandatory="No">
          <def:WhereClauseRef WhereClauseOID="WC.HAMD114"/>
        </ItemRef>
        <ItemRef ItemOID="IT.RS.RSORRES.15" OrderNumber="15" Mandatory="No">
          <def:WhereClauseRef WhereClauseOID="WC.HAMD115"/>
        </ItemRef>
        <ItemRef ItemOID="IT.RS.RSORRES.16" OrderNumber="16" Mandatory="No">
          <def:WhereClauseRef WhereClauseOID="WC.HAMD116A"/>
        </ItemRef>
        <ItemRef ItemOID="IT.RS.RSORRES.17" OrderNumber="17" Mandatory="No">
          <def:WhereClauseRef WhereClauseOID="WC.HAMD116B"/>
        </ItemRef>
        <ItemRef ItemOID="IT.RS.RSORRES.18" OrderNumber="18" Mandatory="No">
          <def:WhereClauseRef WhereClauseOID="WC.HAMD117"/>
        </ItemRef>
        <ItemRef ItemOID="IT.RS.RSORRES.19" OrderNumber="19" Mandatory="No">
          <def:WhereClauseRef WhereClauseOID="WC.HAMD118"/>
        </ItemRef>
      </def:ValueListDef>
      
<def:ValueListDef OID="VL.RSSTRESC">
        <ItemRef ItemOID="IT.RS.RSSTRESC.1" OrderNumber="1" Mandatory="No">
          <def:WhereClauseRef WhereClauseOID="WC.HAMD101S"/>
        </ItemRef>
        <ItemRef ItemOID="IT.RS.RSSTRESC.2" OrderNumber="2" Mandatory="No">
          <def:WhereClauseRef WhereClauseOID="WC.HAMD102S"/>
        </ItemRef>
        <ItemRef ItemOID="IT.RS.RSSTRESC.3" OrderNumber="3" Mandatory="No">
          <def:WhereClauseRef WhereClauseOID="WC.HAMD103S"/>
        </ItemRef>
        <ItemRef ItemOID="IT.RS.RSSTRESC.4" OrderNumber="4" Mandatory="No">
          <def:WhereClauseRef WhereClauseOID="WC.HAMD104S"/>
        </ItemRef>
        <ItemRef ItemOID="IT.RS.RSSTRESC.5" OrderNumber="5" Mandatory="No">
          <def:WhereClauseRef WhereClauseOID="WC.HAMD105S"/>
        </ItemRef>
        <ItemRef ItemOID="IT.RS.RSSTRESC.6" OrderNumber="6" Mandatory="No">
          <def:WhereClauseRef WhereClauseOID="WC.HAMD106S"/>
        </ItemRef>
        <ItemRef ItemOID="IT.RS.RSSTRESC.7" OrderNumber="7" Mandatory="No">
          <def:WhereClauseRef WhereClauseOID="WC.HAMD107S"/>
        </ItemRef>
        <ItemRef ItemOID="IT.RS.RSSTRESC.8" OrderNumber="8" Mandatory="No">
          <def:WhereClauseRef WhereClauseOID="WC.HAMD108S"/>
        </ItemRef>
        <ItemRef ItemOID="IT.RS.RSSTRESC.9" OrderNumber="9" Mandatory="No">
          <def:WhereClauseRef WhereClauseOID="WC.HAMD109S"/>
        </ItemRef>
        <ItemRef ItemOID="IT.RS.RSSTRESC.10" OrderNumber="10" Mandatory="No">
          <def:WhereClauseRef WhereClauseOID="WC.HAMD110S"/>
        </ItemRef>
        <ItemRef ItemOID="IT.RS.RSSTRESC.11" OrderNumber="11" Mandatory="No">
          <def:WhereClauseRef WhereClauseOID="WC.HAMD111S"/>
        </ItemRef>
        <ItemRef ItemOID="IT.RS.RSSTRESC.12" OrderNumber="12" Mandatory="No">
          <def:WhereClauseRef WhereClauseOID="WC.HAMD112S"/>
        </ItemRef>
        <ItemRef ItemOID="IT.RS.RSSTRESC.13" OrderNumber="13" Mandatory="No">
          <def:WhereClauseRef WhereClauseOID="WC.HAMD113S"/>
        </ItemRef>
        <ItemRef ItemOID="IT.RS.RSSTRESC.14" OrderNumber="14" Mandatory="No">
          <def:WhereClauseRef WhereClauseOID="WC.HAMD114S"/>
        </ItemRef>
        <ItemRef ItemOID="IT.RS.RSSTRESC.15" OrderNumber="15" Mandatory="No">
          <def:WhereClauseRef WhereClauseOID="WC.HAMD115S"/>
        </ItemRef>
        <ItemRef ItemOID="IT.RS.RSSTRESC.16" OrderNumber="16" Mandatory="No">
          <def:WhereClauseRef WhereClauseOID="WC.HAMD116AS"/>
        </ItemRef>
        <ItemRef ItemOID="IT.RS.RSSTRESC.17" OrderNumber="17" Mandatory="No">
          <def:WhereClauseRef WhereClauseOID="WC.HAMD116BS"/>
        </ItemRef>
        <ItemRef ItemOID="IT.RS.RSSTRESC.18" OrderNumber="18" Mandatory="No">
          <def:WhereClauseRef WhereClauseOID="WC.HAMD117S"/>
        </ItemRef>
        <ItemRef ItemOID="IT.RS.RSSTRESC.19" OrderNumber="19" Mandatory="No">
          <def:WhereClauseRef WhereClauseOID="WC.HAMD118S"/>
        </ItemRef>
      </def:ValueListDef>
      
<def:ValueListDef OID="VL.SUPPDM">
        <ItemRef ItemOID="IT.SUPPDM.QVAL.1" OrderNumber="1" Mandatory="Yes"
         Role="Result Qualifier">
          <def:WhereClauseRef WhereClauseOID="WC.RACE1"/>
        </ItemRef>
        <ItemRef ItemOID="IT.SUPPDM.QVAL.2" OrderNumber="2" Mandatory="Yes"
         Role="Result Qualifier">
          <def:WhereClauseRef WhereClauseOID="WC.RACE2"/>
        </ItemRef>
        <ItemRef ItemOID="IT.SUPPDM.QVAL.3" OrderNumber="3" Mandatory="Yes"
         Role="Result Qualifier">
          <def:WhereClauseRef WhereClauseOID="WC.RACE3"/>
        </ItemRef>
        <ItemRef ItemOID="IT.SUPPDM.QVAL.4" OrderNumber="4" Mandatory="Yes"
         Role="Result Qualifier" def:HasNoData="Yes">
          <def:WhereClauseRef WhereClauseOID="WC.RACE4"/>
        </ItemRef>
        <ItemRef ItemOID="IT.SUPPDM.QVAL.5" OrderNumber="5" Mandatory="Yes"
         Role="Result Qualifier" def:HasNoData="Yes">
          <def:WhereClauseRef WhereClauseOID="WC.RACE5"/>
        </ItemRef>
      </def:ValueListDef>
      
<def:ValueListDef OID="VL.SUPPEC">
        <ItemRef ItemOID="IT.SUPPEC.QVAL.1" OrderNumber="1" Mandatory="Yes"
         Role="Variable Qualifier">
          <def:WhereClauseRef WhereClauseOID="WC.ECREASOC"/>
        </ItemRef>
      </def:ValueListDef>
      
<def:ValueListDef OID="VL.SUPPNV">
        <ItemRef ItemOID="IT.SUPPNV.QVAL.1" OrderNumber="1" Mandatory="Yes"
         Role="Result Qualifier">
          <def:WhereClauseRef WhereClauseOID="WC.NVCLSIG"/>
        </ItemRef>
      </def:ValueListDef>
      
<def:ValueListDef OID="VL.SUPPOE">
        <ItemRef ItemOID="IT.SUPPOE.QVAL.1" OrderNumber="1" Mandatory="No"
         Role="Result Qualifier">
          <def:WhereClauseRef WhereClauseOID="WC.OECLSIG"/>
        </ItemRef>
      </def:ValueListDef>
      
<def:ValueListDef OID="VL.TSVAL">
        <ItemRef ItemOID="IT.TS.TSVAL.1" OrderNumber="1" Mandatory="No">
          <def:WhereClauseRef WhereClauseOID="WC.TS_YN"/>
        </ItemRef>
        <ItemRef ItemOID="IT.TS.TSVAL.2" OrderNumber="2" Mandatory="No">
          <def:WhereClauseRef WhereClauseOID="WC.TS_INTEGER"/>
        </ItemRef>
        <ItemRef ItemOID="IT.TS.TSVAL.3" OrderNumber="3" Mandatory="No">
          <def:WhereClauseRef WhereClauseOID="WC.TS_DATE"/>
        </ItemRef>
        <ItemRef ItemOID="IT.TS.TSVAL.4" OrderNumber="4" Mandatory="No">
          <def:WhereClauseRef WhereClauseOID="WC.TS_FRM"/>
        </ItemRef>
        <ItemRef ItemOID="IT.TS.TSVAL.5" OrderNumber="5" Mandatory="No">
          <def:WhereClauseRef WhereClauseOID="WC.TS_FREQ"/>
        </ItemRef>
        <ItemRef ItemOID="IT.TS.TSVAL.6" OrderNumber="6" Mandatory="No">
          <def:WhereClauseRef WhereClauseOID="WC.TS_UNIT"/>
        </ItemRef>
        <ItemRef ItemOID="IT.TS.TSVAL.7" OrderNumber="7" Mandatory="No">
          <def:WhereClauseRef WhereClauseOID="WC.TS_COUNTRY"/>
        </ItemRef>
        <ItemRef ItemOID="IT.TS.TSVAL.8" OrderNumber="8" Mandatory="No">
          <def:WhereClauseRef WhereClauseOID="WC.TS_INDIC"/>
        </ItemRef>
        <ItemRef ItemOID="IT.TS.TSVAL.9" OrderNumber="9" Mandatory="No">
          <def:WhereClauseRef WhereClauseOID="WC.TS_MODEL"/>
        </ItemRef>
        <ItemRef ItemOID="IT.TS.TSVAL.10" OrderNumber="10" Mandatory="No">
          <def:WhereClauseRef WhereClauseOID="WC.TS_INTTYPE"/>
        </ItemRef>
        <ItemRef ItemOID="IT.TS.TSVAL.11" OrderNumber="11" Mandatory="No">
          <def:WhereClauseRef WhereClauseOID="WC.TS_DURATION"/>
        </ItemRef>
        <ItemRef ItemOID="IT.TS.TSVAL.12" OrderNumber="12" Mandatory="No">
          <def:WhereClauseRef WhereClauseOID="WC.TS_OBJPRIM"/>
        </ItemRef>
        <ItemRef ItemOID="IT.TS.TSVAL.13" OrderNumber="13" Mandatory="No">
          <def:WhereClauseRef WhereClauseOID="WC.TS_OBJSEC"/>
        </ItemRef>
        <ItemRef ItemOID="IT.TS.TSVAL.14" OrderNumber="14" Mandatory="No">
          <def:WhereClauseRef WhereClauseOID="WC.TS_OUTMSPRI"/>
        </ItemRef>
        <ItemRef ItemOID="IT.TS.TSVAL.15" OrderNumber="15" Mandatory="No">
          <def:WhereClauseRef WhereClauseOID="WC.TS_PCLAS"/>
        </ItemRef>
        <ItemRef ItemOID="IT.TS.TSVAL.16" OrderNumber="16" Mandatory="No">
          <def:WhereClauseRef WhereClauseOID="WC.TS_FLOAT"/>
        </ItemRef>
        <ItemRef ItemOID="IT.TS.TSVAL.17" OrderNumber="17" Mandatory="No">
          <def:WhereClauseRef WhereClauseOID="WC.TS_REGID"/>
        </ItemRef>
        <ItemRef ItemOID="IT.TS.TSVAL.18" OrderNumber="18" Mandatory="No">
          <def:WhereClauseRef WhereClauseOID="WC.TS_ROUTE"/>
        </ItemRef>
        <ItemRef ItemOID="IT.TS.TSVAL.19" OrderNumber="19" Mandatory="No">
          <def:WhereClauseRef WhereClauseOID="WC.TS_SDTM"/>
        </ItemRef>
        <ItemRef ItemOID="IT.TS.TSVAL.20" OrderNumber="20" Mandatory="No">
          <def:WhereClauseRef WhereClauseOID="WC.TS_SEX"/>
        </ItemRef>
        <ItemRef ItemOID="IT.TS.TSVAL.21" OrderNumber="21" Mandatory="No">
          <def:WhereClauseRef WhereClauseOID="WC.TS_SPONSOR"/>
        </ItemRef>
        <ItemRef ItemOID="IT.TS.TSVAL.22" OrderNumber="22" Mandatory="No">
          <def:WhereClauseRef WhereClauseOID="WC.TS_STOPRULE"/>
        </ItemRef>
        <ItemRef ItemOID="IT.TS.TSVAL.23" OrderNumber="23" Mandatory="No">
          <def:WhereClauseRef WhereClauseOID="WC.TS_STYPE"/>
        </ItemRef>
        <ItemRef ItemOID="IT.TS.TSVAL.24" OrderNumber="24" Mandatory="No">
          <def:WhereClauseRef WhereClauseOID="WC.TS_BLIND"/>
        </ItemRef>
        <ItemRef ItemOID="IT.TS.TSVAL.25" OrderNumber="25" Mandatory="No">
          <def:WhereClauseRef WhereClauseOID="WC.TS_CONTROL"/>
        </ItemRef>
        <ItemRef ItemOID="IT.TS.TSVAL.26" OrderNumber="26" Mandatory="No">
          <def:WhereClauseRef WhereClauseOID="WC.TS_TDIGRP"/>
        </ItemRef>
        <ItemRef ItemOID="IT.TS.TSVAL.27" OrderNumber="27" Mandatory="No">
          <def:WhereClauseRef WhereClauseOID="WC.TS_TINDTP"/>
        </ItemRef>
        <ItemRef ItemOID="IT.TS.TSVAL.28" OrderNumber="28" Mandatory="No">
          <def:WhereClauseRef WhereClauseOID="WC.TS_TITLE"/>
        </ItemRef>
        <ItemRef ItemOID="IT.TS.TSVAL.29" OrderNumber="29" Mandatory="No">
          <def:WhereClauseRef WhereClauseOID="WC.TS_PHASE"/>
        </ItemRef>
        <ItemRef ItemOID="IT.TS.TSVAL.30" OrderNumber="30" Mandatory="No">
          <def:WhereClauseRef WhereClauseOID="WC.TS_TRT"/>
        </ItemRef>
        <ItemRef ItemOID="IT.TS.TSVAL.31" OrderNumber="31" Mandatory="No">
          <def:WhereClauseRef WhereClauseOID="WC.TS_TTYPE"/>
        </ItemRef>
      </def:ValueListDef>
      
<def:ValueListDef OID="VL.VSORRES">
        <ItemRef ItemOID="IT.VS.VSORRES.1" OrderNumber="1" Mandatory="No">
          <def:WhereClauseRef WhereClauseOID="WC.BP"/>
        </ItemRef>
        <ItemRef ItemOID="IT.VS.VSORRES.2" OrderNumber="2" Mandatory="No">
          <def:WhereClauseRef WhereClauseOID="WC.HEIGHT"/>
        </ItemRef>
        <ItemRef ItemOID="IT.VS.VSORRES.3" OrderNumber="3" Mandatory="No">
          <def:WhereClauseRef WhereClauseOID="WC.PULSE"/>
        </ItemRef>
        <ItemRef ItemOID="IT.VS.VSORRES.5" OrderNumber="4" Mandatory="No">
          <def:WhereClauseRef WhereClauseOID="WC.TEMP"/>
        </ItemRef>
        <ItemRef ItemOID="IT.VS.VSORRES.6" OrderNumber="5" Mandatory="No">
          <def:WhereClauseRef WhereClauseOID="WC.WEIGHT"/>
        </ItemRef>
      </def:ValueListDef>
      
<def:ValueListDef OID="VL.VSORRESU">
        <ItemRef ItemOID="IT.VS.VSORRESU.1" OrderNumber="1" Mandatory="No">
          <def:WhereClauseRef WhereClauseOID="WC.BP"/>
        </ItemRef>
        <ItemRef ItemOID="IT.VS.VSORRESU.2" OrderNumber="2" Mandatory="No">
          <def:WhereClauseRef WhereClauseOID="WC.HEIGHTU"/>
        </ItemRef>
        <ItemRef ItemOID="IT.VS.VSORRESU.3" OrderNumber="3" Mandatory="No">
          <def:WhereClauseRef WhereClauseOID="WC.PULSEU"/>
        </ItemRef>
        <ItemRef ItemOID="IT.VS.VSORRESU.5" OrderNumber="4" Mandatory="No">
          <def:WhereClauseRef WhereClauseOID="WC.TEMPU"/>
        </ItemRef>
        <ItemRef ItemOID="IT.VS.VSORRESU.6" OrderNumber="5" Mandatory="No">
          <def:WhereClauseRef WhereClauseOID="WC.WEIGHTU"/>
        </ItemRef>
      </def:ValueListDef>
      
<def:ValueListDef OID="VL.VSSTRESU">
        <ItemRef ItemOID="IT.VS.VSSTRESU.1" OrderNumber="1" Mandatory="No">
          <def:WhereClauseRef WhereClauseOID="WC.BP"/>
        </ItemRef>
        <ItemRef ItemOID="IT.VS.VSSTRESU.2" OrderNumber="2" Mandatory="No">
          <def:WhereClauseRef WhereClauseOID="WC.HEIGHTU"/>
        </ItemRef>
        <ItemRef ItemOID="IT.VS.VSSTRESU.3" OrderNumber="3" Mandatory="No">
          <def:WhereClauseRef WhereClauseOID="WC.PULSEU"/>
        </ItemRef>
        <ItemRef ItemOID="IT.VS.VSSTRESU.5" OrderNumber="4" Mandatory="No">
          <def:WhereClauseRef WhereClauseOID="WC.TEMPU"/>
        </ItemRef>
        <ItemRef ItemOID="IT.VS.VSSTRESU.6" OrderNumber="5" Mandatory="No">
          <def:WhereClauseRef WhereClauseOID="WC.WEIGHTU"/>
        </ItemRef>
      </def:ValueListDef>


      


      <def:WhereClauseDef OID="WC.AETERM1">
        <RangeCheck Comparator="EQ" SoftHard="Soft" def:ItemOID="IT.AE.AETERM">
          <CheckValue>INJECTION SITE REACTION</CheckValue>
        </RangeCheck>
      </def:WhereClauseDef>
      
<def:WhereClauseDef OID="WC.AETERM2">
        <RangeCheck Comparator="NE" SoftHard="Soft" def:ItemOID="IT.AE.AETERM">
          <CheckValue>INJECTION SITE REACTION</CheckValue>
        </RangeCheck>
      </def:WhereClauseDef>
      
<def:WhereClauseDef OID="WC.AVL0201-15">
        <RangeCheck Comparator="IN" SoftHard="Soft" def:ItemOID="IT.FT.FTTESTCD">
          <CheckValue>AVL0201</CheckValue>
          <CheckValue>AVL0202</CheckValue>
          <CheckValue>AVL0203</CheckValue>
          <CheckValue>AVL0204</CheckValue>
          <CheckValue>AVL0205</CheckValue>
          <CheckValue>AVL0206</CheckValue>
          <CheckValue>AVL0207</CheckValue>
          <CheckValue>AVL0208</CheckValue>
          <CheckValue>AVL0209</CheckValue>
          <CheckValue>AVL0210</CheckValue>
          <CheckValue>AVL0211</CheckValue>
          <CheckValue>AVL0212</CheckValue>
          <CheckValue>AVL0213</CheckValue>
          <CheckValue>AVL0214</CheckValue>
          <CheckValue>AVL0215</CheckValue>
        </RangeCheck>
      </def:WhereClauseDef>
      
<def:WhereClauseDef OID="WC.AVL0216-17">
        <RangeCheck Comparator="IN" SoftHard="Soft" def:ItemOID="IT.FT.FTTESTCD">
          <CheckValue>AVL0216</CheckValue>
          <CheckValue>AVL0217</CheckValue>
        </RangeCheck>
      </def:WhereClauseDef>
      
<def:WhereClauseDef OID="WC.AVL0218-32">
        <RangeCheck Comparator="IN" SoftHard="Soft" def:ItemOID="IT.FT.FTTESTCD">
          <CheckValue>AVL0218</CheckValue>
          <CheckValue>AVL0219</CheckValue>
          <CheckValue>AVL0220</CheckValue>
          <CheckValue>AVL0221</CheckValue>
          <CheckValue>AVL0222</CheckValue>
          <CheckValue>AVL0223</CheckValue>
          <CheckValue>AVL0224</CheckValue>
          <CheckValue>AVL0225</CheckValue>
          <CheckValue>AVL0226</CheckValue>
          <CheckValue>AVL0227</CheckValue>
          <CheckValue>AVL0228</CheckValue>
          <CheckValue>AVL0229</CheckValue>
          <CheckValue>AVL0230</CheckValue>
          <CheckValue>AVL0231</CheckValue>
          <CheckValue>AVL0232</CheckValue>
        </RangeCheck>
      </def:WhereClauseDef>
      
<def:WhereClauseDef OID="WC.AVL0233-34">
        <RangeCheck Comparator="IN" SoftHard="Soft" def:ItemOID="IT.FT.FTTESTCD">
          <CheckValue>AVL0233</CheckValue>
          <CheckValue>AVL0234</CheckValue>
        </RangeCheck>
      </def:WhereClauseDef>
      
<def:WhereClauseDef OID="WC.BP">
        <RangeCheck Comparator="IN" SoftHard="Soft" def:ItemOID="IT.VS.VSTESTCD">
          <CheckValue>DIABP</CheckValue>
          <CheckValue>SYSBP</CheckValue>
        </RangeCheck>
      </def:WhereClauseDef>
      
<def:WhereClauseDef OID="WC.DSDECOD1">
        <RangeCheck Comparator="NE" SoftHard="Soft" def:ItemOID="IT.DS.DSSCAT">
          <CheckValue></CheckValue>
        </RangeCheck>
      </def:WhereClauseDef>
      
<def:WhereClauseDef OID="WC.DSDECOD2">
        <RangeCheck Comparator="EQ" SoftHard="Soft" def:ItemOID="IT.DS.DSSCAT">
          <CheckValue></CheckValue>
        </RangeCheck>
      </def:WhereClauseDef>
      
<def:WhereClauseDef OID="WC.DSTERM1">
        <RangeCheck Comparator="NE" SoftHard="Soft" def:ItemOID="IT.DS.DSSCAT">
          <CheckValue></CheckValue>
        </RangeCheck>
      </def:WhereClauseDef>
      
<def:WhereClauseDef OID="WC.DSTERM2">
        <RangeCheck Comparator="EQ" SoftHard="Soft" def:ItemOID="IT.DS.DSSCAT">
          <CheckValue></CheckValue>
        </RangeCheck>
      </def:WhereClauseDef>
      
<def:WhereClauseDef OID="WC.ECREASOC">
        <RangeCheck Comparator="EQ" SoftHard="Soft" def:ItemOID="IT.SUPPEC.QNAM">
          <CheckValue>ECREASOC</CheckValue>
        </RangeCheck>
      </def:WhereClauseDef>
      
<def:WhereClauseDef OID="WC.FAOCCUR">
        <RangeCheck Comparator="EQ" SoftHard="Soft" def:ItemOID="IT.FA.FATESTCD">
          <CheckValue>OCCUR</CheckValue>
        </RangeCheck>
      </def:WhereClauseDef>
      
<def:WhereClauseDef OID="WC.FASEV">
        <RangeCheck Comparator="EQ" SoftHard="Soft" def:ItemOID="IT.FA.FATESTCD">
          <CheckValue>SEV</CheckValue>
        </RangeCheck>
      </def:WhereClauseDef>
      
<def:WhereClauseDef OID="WC.HAMD101">
        <RangeCheck Comparator="EQ" SoftHard="Soft" def:ItemOID="IT.RS.RSTESTCD">
          <CheckValue>HAMD101</CheckValue>
        </RangeCheck>
      </def:WhereClauseDef>
      
<def:WhereClauseDef OID="WC.HAMD101S">
        <RangeCheck Comparator="EQ" SoftHard="Soft" def:ItemOID="IT.RS.RSTESTCD">
          <CheckValue>HAMD101</CheckValue>
        </RangeCheck>
      </def:WhereClauseDef>
      
<def:WhereClauseDef OID="WC.HAMD102">
        <RangeCheck Comparator="EQ" SoftHard="Soft" def:ItemOID="IT.RS.RSTESTCD">
          <CheckValue>HAMD102</CheckValue>
        </RangeCheck>
      </def:WhereClauseDef>
      
<def:WhereClauseDef OID="WC.HAMD102S">
        <RangeCheck Comparator="EQ" SoftHard="Soft" def:ItemOID="IT.RS.RSTESTCD">
          <CheckValue>HAMD102</CheckValue>
        </RangeCheck>
      </def:WhereClauseDef>
      
<def:WhereClauseDef OID="WC.HAMD103">
        <RangeCheck Comparator="EQ" SoftHard="Soft" def:ItemOID="IT.RS.RSTESTCD">
          <CheckValue>HAMD103</CheckValue>
        </RangeCheck>
      </def:WhereClauseDef>
      
<def:WhereClauseDef OID="WC.HAMD103S">
        <RangeCheck Comparator="EQ" SoftHard="Soft" def:ItemOID="IT.RS.RSTESTCD">
          <CheckValue>HAMD103</CheckValue>
        </RangeCheck>
      </def:WhereClauseDef>
      
<def:WhereClauseDef OID="WC.HAMD104">
        <RangeCheck Comparator="EQ" SoftHard="Soft" def:ItemOID="IT.RS.RSTESTCD">
          <CheckValue>HAMD104</CheckValue>
        </RangeCheck>
      </def:WhereClauseDef>
      
<def:WhereClauseDef OID="WC.HAMD104S">
        <RangeCheck Comparator="EQ" SoftHard="Soft" def:ItemOID="IT.RS.RSTESTCD">
          <CheckValue>HAMD104</CheckValue>
        </RangeCheck>
      </def:WhereClauseDef>
      
<def:WhereClauseDef OID="WC.HAMD105">
        <RangeCheck Comparator="EQ" SoftHard="Soft" def:ItemOID="IT.RS.RSTESTCD">
          <CheckValue>HAMD105</CheckValue>
        </RangeCheck>
      </def:WhereClauseDef>
      
<def:WhereClauseDef OID="WC.HAMD105S">
        <RangeCheck Comparator="EQ" SoftHard="Soft" def:ItemOID="IT.RS.RSTESTCD">
          <CheckValue>HAMD105</CheckValue>
        </RangeCheck>
      </def:WhereClauseDef>
      
<def:WhereClauseDef OID="WC.HAMD106">
        <RangeCheck Comparator="EQ" SoftHard="Soft" def:ItemOID="IT.RS.RSTESTCD">
          <CheckValue>HAMD106</CheckValue>
        </RangeCheck>
      </def:WhereClauseDef>
      
<def:WhereClauseDef OID="WC.HAMD106S">
        <RangeCheck Comparator="EQ" SoftHard="Soft" def:ItemOID="IT.RS.RSTESTCD">
          <CheckValue>HAMD106</CheckValue>
        </RangeCheck>
      </def:WhereClauseDef>
      
<def:WhereClauseDef OID="WC.HAMD107">
        <RangeCheck Comparator="EQ" SoftHard="Soft" def:ItemOID="IT.RS.RSTESTCD">
          <CheckValue>HAMD107</CheckValue>
        </RangeCheck>
      </def:WhereClauseDef>
      
<def:WhereClauseDef OID="WC.HAMD107S">
        <RangeCheck Comparator="EQ" SoftHard="Soft" def:ItemOID="IT.RS.RSTESTCD">
          <CheckValue>HAMD107</CheckValue>
        </RangeCheck>
      </def:WhereClauseDef>
      
<def:WhereClauseDef OID="WC.HAMD108">
        <RangeCheck Comparator="EQ" SoftHard="Soft" def:ItemOID="IT.RS.RSTESTCD">
          <CheckValue>HAMD108</CheckValue>
        </RangeCheck>
      </def:WhereClauseDef>
      
<def:WhereClauseDef OID="WC.HAMD108S">
        <RangeCheck Comparator="EQ" SoftHard="Soft" def:ItemOID="IT.RS.RSTESTCD">
          <CheckValue>HAMD108</CheckValue>
        </RangeCheck>
      </def:WhereClauseDef>
      
<def:WhereClauseDef OID="WC.HAMD109">
        <RangeCheck Comparator="EQ" SoftHard="Soft" def:ItemOID="IT.RS.RSTESTCD">
          <CheckValue>HAMD109</CheckValue>
        </RangeCheck>
      </def:WhereClauseDef>
      
<def:WhereClauseDef OID="WC.HAMD109S">
        <RangeCheck Comparator="EQ" SoftHard="Soft" def:ItemOID="IT.RS.RSTESTCD">
          <CheckValue>HAMD109</CheckValue>
        </RangeCheck>
      </def:WhereClauseDef>
      
<def:WhereClauseDef OID="WC.HAMD110">
        <RangeCheck Comparator="EQ" SoftHard="Soft" def:ItemOID="IT.RS.RSTESTCD">
          <CheckValue>HAMD110</CheckValue>
        </RangeCheck>
      </def:WhereClauseDef>
      
<def:WhereClauseDef OID="WC.HAMD110S">
        <RangeCheck Comparator="EQ" SoftHard="Soft" def:ItemOID="IT.RS.RSTESTCD">
          <CheckValue>HAMD110</CheckValue>
        </RangeCheck>
      </def:WhereClauseDef>
      
<def:WhereClauseDef OID="WC.HAMD111">
        <RangeCheck Comparator="EQ" SoftHard="Soft" def:ItemOID="IT.RS.RSTESTCD">
          <CheckValue>HAMD111</CheckValue>
        </RangeCheck>
      </def:WhereClauseDef>
      
<def:WhereClauseDef OID="WC.HAMD111S">
        <RangeCheck Comparator="EQ" SoftHard="Soft" def:ItemOID="IT.RS.RSTESTCD">
          <CheckValue>HAMD111</CheckValue>
        </RangeCheck>
      </def:WhereClauseDef>
      
<def:WhereClauseDef OID="WC.HAMD112">
        <RangeCheck Comparator="EQ" SoftHard="Soft" def:ItemOID="IT.RS.RSTESTCD">
          <CheckValue>HAMD112</CheckValue>
        </RangeCheck>
      </def:WhereClauseDef>
      
<def:WhereClauseDef OID="WC.HAMD112S">
        <RangeCheck Comparator="EQ" SoftHard="Soft" def:ItemOID="IT.RS.RSTESTCD">
          <CheckValue>HAMD112</CheckValue>
        </RangeCheck>
      </def:WhereClauseDef>
      
<def:WhereClauseDef OID="WC.HAMD113">
        <RangeCheck Comparator="EQ" SoftHard="Soft" def:ItemOID="IT.RS.RSTESTCD">
          <CheckValue>HAMD113</CheckValue>
        </RangeCheck>
      </def:WhereClauseDef>
      
<def:WhereClauseDef OID="WC.HAMD113S">
        <RangeCheck Comparator="EQ" SoftHard="Soft" def:ItemOID="IT.RS.RSTESTCD">
          <CheckValue>HAMD113</CheckValue>
        </RangeCheck>
      </def:WhereClauseDef>
      
<def:WhereClauseDef OID="WC.HAMD114">
        <RangeCheck Comparator="EQ" SoftHard="Soft" def:ItemOID="IT.RS.RSTESTCD">
          <CheckValue>HAMD114</CheckValue>
        </RangeCheck>
      </def:WhereClauseDef>
      
<def:WhereClauseDef OID="WC.HAMD114S">
        <RangeCheck Comparator="EQ" SoftHard="Soft" def:ItemOID="IT.RS.RSTESTCD">
          <CheckValue>HAMD114</CheckValue>
        </RangeCheck>
      </def:WhereClauseDef>
      
<def:WhereClauseDef OID="WC.HAMD115">
        <RangeCheck Comparator="EQ" SoftHard="Soft" def:ItemOID="IT.RS.RSTESTCD">
          <CheckValue>HAMD115</CheckValue>
        </RangeCheck>
      </def:WhereClauseDef>
      
<def:WhereClauseDef OID="WC.HAMD115S">
        <RangeCheck Comparator="EQ" SoftHard="Soft" def:ItemOID="IT.RS.RSTESTCD">
          <CheckValue>HAMD115</CheckValue>
        </RangeCheck>
      </def:WhereClauseDef>
      
<def:WhereClauseDef OID="WC.HAMD116A">
        <RangeCheck Comparator="EQ" SoftHard="Soft" def:ItemOID="IT.RS.RSTESTCD">
          <CheckValue>HAMD116A</CheckValue>
        </RangeCheck>
      </def:WhereClauseDef>
      
<def:WhereClauseDef OID="WC.HAMD116AS">
        <RangeCheck Comparator="EQ" SoftHard="Soft" def:ItemOID="IT.RS.RSTESTCD">
          <CheckValue>HAMD116A</CheckValue>
        </RangeCheck>
      </def:WhereClauseDef>
      
<def:WhereClauseDef OID="WC.HAMD116B">
        <RangeCheck Comparator="EQ" SoftHard="Soft" def:ItemOID="IT.RS.RSTESTCD">
          <CheckValue>HAMD116B</CheckValue>
        </RangeCheck>
      </def:WhereClauseDef>
      
<def:WhereClauseDef OID="WC.HAMD116BS">
        <RangeCheck Comparator="EQ" SoftHard="Soft" def:ItemOID="IT.RS.RSTESTCD">
          <CheckValue>HAMD116B</CheckValue>
        </RangeCheck>
      </def:WhereClauseDef>
      
<def:WhereClauseDef OID="WC.HAMD117">
        <RangeCheck Comparator="EQ" SoftHard="Soft" def:ItemOID="IT.RS.RSTESTCD">
          <CheckValue>HAMD117</CheckValue>
        </RangeCheck>
      </def:WhereClauseDef>
      
<def:WhereClauseDef OID="WC.HAMD117S">
        <RangeCheck Comparator="EQ" SoftHard="Soft" def:ItemOID="IT.RS.RSTESTCD">
          <CheckValue>HAMD117</CheckValue>
        </RangeCheck>
      </def:WhereClauseDef>
      
<def:WhereClauseDef OID="WC.HAMD118">
        <RangeCheck Comparator="EQ" SoftHard="Soft" def:ItemOID="IT.RS.RSTESTCD">
          <CheckValue>HAMD118</CheckValue>
        </RangeCheck>
      </def:WhereClauseDef>
      
<def:WhereClauseDef OID="WC.HAMD118S">
        <RangeCheck Comparator="EQ" SoftHard="Soft" def:ItemOID="IT.RS.RSTESTCD">
          <CheckValue>HAMD118</CheckValue>
        </RangeCheck>
      </def:WhereClauseDef>
      
<def:WhereClauseDef OID="WC.HEIGHT">
        <RangeCheck Comparator="EQ" SoftHard="Soft" def:ItemOID="IT.VS.VSTESTCD">
          <CheckValue>HEIGHT</CheckValue>
        </RangeCheck>
      </def:WhereClauseDef>
      
<def:WhereClauseDef OID="WC.HEIGHTU">
        <RangeCheck Comparator="EQ" SoftHard="Soft" def:ItemOID="IT.VS.VSTESTCD">
          <CheckValue>HEIGHT</CheckValue>
        </RangeCheck>
      </def:WhereClauseDef>
      
<def:WhereClauseDef OID="WC.LB_ORRESU_UNITS_ALB">
        <RangeCheck Comparator="EQ" SoftHard="Soft" def:ItemOID="IT.LB.LBTESTCD">
          <CheckValue>ALB</CheckValue>
        </RangeCheck>
      </def:WhereClauseDef>
      
<def:WhereClauseDef OID="WC.LB_ORRESU_UNITS_ALP">
        <RangeCheck Comparator="EQ" SoftHard="Soft" def:ItemOID="IT.LB.LBTESTCD">
          <CheckValue>ALP</CheckValue>
        </RangeCheck>
      </def:WhereClauseDef>
      
<def:WhereClauseDef OID="WC.LB_ORRESU_UNITS_ALT">
        <RangeCheck Comparator="EQ" SoftHard="Soft" def:ItemOID="IT.LB.LBTESTCD">
          <CheckValue>ALT</CheckValue>
        </RangeCheck>
      </def:WhereClauseDef>
      
<def:WhereClauseDef OID="WC.LB_ORRESU_UNITS_AST">
        <RangeCheck Comparator="EQ" SoftHard="Soft" def:ItemOID="IT.LB.LBTESTCD">
          <CheckValue>AST</CheckValue>
        </RangeCheck>
      </def:WhereClauseDef>
      
<def:WhereClauseDef OID="WC.LB_ORRESU_UNITS_BASO">
        <RangeCheck Comparator="EQ" SoftHard="Soft" def:ItemOID="IT.LB.LBTESTCD">
          <CheckValue>BASO</CheckValue>
        </RangeCheck>
      </def:WhereClauseDef>
      
<def:WhereClauseDef OID="WC.LB_ORRESU_UNITS_BILI">
        <RangeCheck Comparator="EQ" SoftHard="Soft" def:ItemOID="IT.LB.LBTESTCD">
          <CheckValue>BILI</CheckValue>
        </RangeCheck>
      </def:WhereClauseDef>
      
<def:WhereClauseDef OID="WC.LB_ORRESU_UNITS_CA">
        <RangeCheck Comparator="EQ" SoftHard="Soft" def:ItemOID="IT.LB.LBTESTCD">
          <CheckValue>CA</CheckValue>
        </RangeCheck>
      </def:WhereClauseDef>
      
<def:WhereClauseDef OID="WC.LB_ORRESU_UNITS_CHOL">
        <RangeCheck Comparator="EQ" SoftHard="Soft" def:ItemOID="IT.LB.LBTESTCD">
          <CheckValue>CHOL</CheckValue>
        </RangeCheck>
      </def:WhereClauseDef>
      
<def:WhereClauseDef OID="WC.LB_ORRESU_UNITS_CK">
        <RangeCheck Comparator="EQ" SoftHard="Soft" def:ItemOID="IT.LB.LBTESTCD">
          <CheckValue>CK</CheckValue>
        </RangeCheck>
      </def:WhereClauseDef>
      
<def:WhereClauseDef OID="WC.LB_ORRESU_UNITS_CL">
        <RangeCheck Comparator="EQ" SoftHard="Soft" def:ItemOID="IT.LB.LBTESTCD">
          <CheckValue>CL</CheckValue>
        </RangeCheck>
      </def:WhereClauseDef>
      
<def:WhereClauseDef OID="WC.LB_ORRESU_UNITS_CREAT">
        <RangeCheck Comparator="EQ" SoftHard="Soft" def:ItemOID="IT.LB.LBTESTCD">
          <CheckValue>CREAT</CheckValue>
        </RangeCheck>
      </def:WhereClauseDef>
      
<def:WhereClauseDef OID="WC.LB_ORRESU_UNITS_EOS">
        <RangeCheck Comparator="EQ" SoftHard="Soft" def:ItemOID="IT.LB.LBTESTCD">
          <CheckValue>EOS</CheckValue>
        </RangeCheck>
      </def:WhereClauseDef>
      
<def:WhereClauseDef OID="WC.LB_ORRESU_UNITS_GGT">
        <RangeCheck Comparator="EQ" SoftHard="Soft" def:ItemOID="IT.LB.LBTESTCD">
          <CheckValue>GGT</CheckValue>
        </RangeCheck>
      </def:WhereClauseDef>
      
<def:WhereClauseDef OID="WC.LB_ORRESU_UNITS_GLUC">
        <RangeCheck Comparator="EQ" SoftHard="Soft" def:ItemOID="IT.LB.LBTESTCD">
          <CheckValue>GLUC</CheckValue>
        </RangeCheck>
      </def:WhereClauseDef>
      
<def:WhereClauseDef OID="WC.LB_ORRESU_UNITS_HCT">
        <RangeCheck Comparator="EQ" SoftHard="Soft" def:ItemOID="IT.LB.LBTESTCD">
          <CheckValue>HCT</CheckValue>
        </RangeCheck>
      </def:WhereClauseDef>
      
<def:WhereClauseDef OID="WC.LB_ORRESU_UNITS_HGB">
        <RangeCheck Comparator="EQ" SoftHard="Soft" def:ItemOID="IT.LB.LBTESTCD">
          <CheckValue>HGB</CheckValue>
        </RangeCheck>
      </def:WhereClauseDef>
      
<def:WhereClauseDef OID="WC.LB_ORRESU_UNITS_K">
        <RangeCheck Comparator="EQ" SoftHard="Soft" def:ItemOID="IT.LB.LBTESTCD">
          <CheckValue>K</CheckValue>
        </RangeCheck>
      </def:WhereClauseDef>
      
<def:WhereClauseDef OID="WC.LB_ORRESU_UNITS_LYM">
        <RangeCheck Comparator="EQ" SoftHard="Soft" def:ItemOID="IT.LB.LBTESTCD">
          <CheckValue>LYM</CheckValue>
        </RangeCheck>
      </def:WhereClauseDef>
      
<def:WhereClauseDef OID="WC.LB_ORRESU_UNITS_MCH">
        <RangeCheck Comparator="EQ" SoftHard="Soft" def:ItemOID="IT.LB.LBTESTCD">
          <CheckValue>MCH</CheckValue>
        </RangeCheck>
      </def:WhereClauseDef>
      
<def:WhereClauseDef OID="WC.LB_ORRESU_UNITS_MCHC">
        <RangeCheck Comparator="EQ" SoftHard="Soft" def:ItemOID="IT.LB.LBTESTCD">
          <CheckValue>MCHC</CheckValue>
        </RangeCheck>
      </def:WhereClauseDef>
      
<def:WhereClauseDef OID="WC.LB_ORRESU_UNITS_MCV">
        <RangeCheck Comparator="EQ" SoftHard="Soft" def:ItemOID="IT.LB.LBTESTCD">
          <CheckValue>MCV</CheckValue>
        </RangeCheck>
      </def:WhereClauseDef>
      
<def:WhereClauseDef OID="WC.LB_ORRESU_UNITS_MONO">
        <RangeCheck Comparator="EQ" SoftHard="Soft" def:ItemOID="IT.LB.LBTESTCD">
          <CheckValue>MONO</CheckValue>
        </RangeCheck>
      </def:WhereClauseDef>
      
<def:WhereClauseDef OID="WC.LB_ORRESU_UNITS_PHOS">
        <RangeCheck Comparator="EQ" SoftHard="Soft" def:ItemOID="IT.LB.LBTESTCD">
          <CheckValue>PHOS</CheckValue>
        </RangeCheck>
      </def:WhereClauseDef>
      
<def:WhereClauseDef OID="WC.LB_ORRESU_UNITS_PLAT">
        <RangeCheck Comparator="EQ" SoftHard="Soft" def:ItemOID="IT.LB.LBTESTCD">
          <CheckValue>PLAT</CheckValue>
        </RangeCheck>
      </def:WhereClauseDef>
      
<def:WhereClauseDef OID="WC.LB_ORRESU_UNITS_PROT">
        <RangeCheck Comparator="EQ" SoftHard="Soft" def:ItemOID="IT.LB.LBTESTCD">
          <CheckValue>PROT</CheckValue>
        </RangeCheck>
      </def:WhereClauseDef>
      
<def:WhereClauseDef OID="WC.LB_ORRESU_UNITS_RBC">
        <RangeCheck Comparator="EQ" SoftHard="Soft" def:ItemOID="IT.LB.LBTESTCD">
          <CheckValue>RBC</CheckValue>
        </RangeCheck>
      </def:WhereClauseDef>
      
<def:WhereClauseDef OID="WC.LB_ORRESU_UNITS_SODIUM">
        <RangeCheck Comparator="EQ" SoftHard="Soft" def:ItemOID="IT.LB.LBTESTCD">
          <CheckValue>SODIUM</CheckValue>
        </RangeCheck>
      </def:WhereClauseDef>
      
<def:WhereClauseDef OID="WC.LB_ORRESU_UNITS_TSH">
        <RangeCheck Comparator="EQ" SoftHard="Soft" def:ItemOID="IT.LB.LBTESTCD">
          <CheckValue>TSH</CheckValue>
        </RangeCheck>
      </def:WhereClauseDef>
      
<def:WhereClauseDef OID="WC.LB_ORRESU_UNITS_URATE">
        <RangeCheck Comparator="EQ" SoftHard="Soft" def:ItemOID="IT.LB.LBTESTCD">
          <CheckValue>URATE</CheckValue>
        </RangeCheck>
      </def:WhereClauseDef>
      
<def:WhereClauseDef OID="WC.LB_ORRESU_UNITS_UREAN">
        <RangeCheck Comparator="EQ" SoftHard="Soft" def:ItemOID="IT.LB.LBTESTCD">
          <CheckValue>UREAN</CheckValue>
        </RangeCheck>
      </def:WhereClauseDef>
      
<def:WhereClauseDef OID="WC.LB_ORRESU_UNITS_VITB12">
        <RangeCheck Comparator="EQ" SoftHard="Soft" def:ItemOID="IT.LB.LBTESTCD">
          <CheckValue>VITB12</CheckValue>
        </RangeCheck>
      </def:WhereClauseDef>
      
<def:WhereClauseDef OID="WC.LB_ORRESU_UNITS_WBC">
        <RangeCheck Comparator="EQ" SoftHard="Soft" def:ItemOID="IT.LB.LBTESTCD">
          <CheckValue>WBC</CheckValue>
        </RangeCheck>
      </def:WhereClauseDef>
      
<def:WhereClauseDef OID="WC.LB_ORRES_COLOR">
        <RangeCheck Comparator="EQ" SoftHard="Soft" def:ItemOID="IT.LB.LBTESTCD">
          <CheckValue>COLOR</CheckValue>
        </RangeCheck>
      </def:WhereClauseDef>
      
<def:WhereClauseDef OID="WC.LB_ORRES_GLUC">
        <RangeCheck Comparator="EQ" SoftHard="Soft" def:ItemOID="IT.LB.LBTESTCD">
          <CheckValue>GLUC</CheckValue>
        </RangeCheck>
      </def:WhereClauseDef>
      
<def:WhereClauseDef OID="WC.LB_ORRES_SET1">
        <RangeCheck Comparator="IN" SoftHard="Soft" def:ItemOID="IT.LB.LBTESTCD">
          <CheckValue>ALB</CheckValue>
          <CheckValue>BILI</CheckValue>
          <CheckValue>CA</CheckValue>
          <CheckValue>CREAT</CheckValue>
          <CheckValue>K</CheckValue>
          <CheckValue>PHOS</CheckValue>
          <CheckValue>PROT</CheckValue>
          <CheckValue>URATE</CheckValue>
        </RangeCheck>
      </def:WhereClauseDef>
      
<def:WhereClauseDef OID="WC.LB_ORRES_SET2">
        <RangeCheck Comparator="IN" SoftHard="Soft" def:ItemOID="IT.LB.LBTESTCD">
          <CheckValue>HCT</CheckValue>
          <CheckValue>HGB</CheckValue>
        </RangeCheck>
      </def:WhereClauseDef>
      
<def:WhereClauseDef OID="WC.LB_ORRES_SET3">
        <RangeCheck Comparator="IN" SoftHard="Soft" def:ItemOID="IT.LB.LBTESTCD">
          <CheckValue>BASO</CheckValue>
          <CheckValue>EOS</CheckValue>
          <CheckValue>LYM</CheckValue>
          <CheckValue>MONO</CheckValue>
          <CheckValue>RBC</CheckValue>
          <CheckValue>TSH</CheckValue>
          <CheckValue>WBC</CheckValue>
        </RangeCheck>
      </def:WhereClauseDef>
      
<def:WhereClauseDef OID="WC.LB_ORRES_SET4">
        <RangeCheck Comparator="IN" SoftHard="Soft" def:ItemOID="IT.LB.LBTESTCD">
          <CheckValue>ANISO</CheckValue>
          <CheckValue>KETONES</CheckValue>
          <CheckValue>MACROCY</CheckValue>
          <CheckValue>PH</CheckValue>
          <CheckValue>POIKILO</CheckValue>
          <CheckValue>UROBIL</CheckValue>
        </RangeCheck>
      </def:WhereClauseDef>
      
<def:WhereClauseDef OID="WC.LB_ORRES_SET5">
        <RangeCheck Comparator="IN" SoftHard="Soft" def:ItemOID="IT.LB.LBTESTCD">
          <CheckValue>ALT</CheckValue>
          <CheckValue>AST</CheckValue>
          <CheckValue>GGT</CheckValue>
          <CheckValue>MCH</CheckValue>
          <CheckValue>MCHC</CheckValue>
          <CheckValue>MCV</CheckValue>
          <CheckValue>UREAN</CheckValue>
        </RangeCheck>
      </def:WhereClauseDef>
      
<def:WhereClauseDef OID="WC.LB_ORRES_SET6">
        <RangeCheck Comparator="IN" SoftHard="Soft" def:ItemOID="IT.LB.LBTESTCD">
          <CheckValue>ALP</CheckValue>
          <CheckValue>CHOL</CheckValue>
          <CheckValue>CK</CheckValue>
          <CheckValue>CL</CheckValue>
          <CheckValue>PLAT</CheckValue>
          <CheckValue>SODIUM</CheckValue>
          <CheckValue>VITB12</CheckValue>
        </RangeCheck>
      </def:WhereClauseDef>
      
<def:WhereClauseDef OID="WC.LB_ORRES_SPGRAV">
        <RangeCheck Comparator="EQ" SoftHard="Soft" def:ItemOID="IT.LB.LBTESTCD">
          <CheckValue>SPGRAV</CheckValue>
        </RangeCheck>
      </def:WhereClauseDef>
      
<def:WhereClauseDef OID="WC.LB_STRESC_BILI">
        <RangeCheck Comparator="EQ" SoftHard="Soft" def:ItemOID="IT.LB.LBTESTCD">
          <CheckValue>BILI</CheckValue>
        </RangeCheck>
      </def:WhereClauseDef>
      
<def:WhereClauseDef OID="WC.LB_STRESC_CK">
        <RangeCheck Comparator="EQ" SoftHard="Soft" def:ItemOID="IT.LB.LBTESTCD">
          <CheckValue>CK</CheckValue>
        </RangeCheck>
      </def:WhereClauseDef>
      
<def:WhereClauseDef OID="WC.LB_STRESC_COLOR">
        <RangeCheck Comparator="EQ" SoftHard="Soft" def:ItemOID="IT.LB.LBTESTCD">
          <CheckValue>COLOR</CheckValue>
        </RangeCheck>
      </def:WhereClauseDef>
      
<def:WhereClauseDef OID="WC.LB_STRESC_CREAT">
        <RangeCheck Comparator="EQ" SoftHard="Soft" def:ItemOID="IT.LB.LBTESTCD">
          <CheckValue>CREAT</CheckValue>
        </RangeCheck>
      </def:WhereClauseDef>
      
<def:WhereClauseDef OID="WC.LB_STRESC_GLUC">
        <RangeCheck Comparator="EQ" SoftHard="Soft" def:ItemOID="IT.LB.LBTESTCD">
          <CheckValue>GLUC</CheckValue>
        </RangeCheck>
      </def:WhereClauseDef>
      
<def:WhereClauseDef OID="WC.LB_STRESC_HGB">
        <RangeCheck Comparator="EQ" SoftHard="Soft" def:ItemOID="IT.LB.LBTESTCD">
          <CheckValue>HGB</CheckValue>
        </RangeCheck>
      </def:WhereClauseDef>
      
<def:WhereClauseDef OID="WC.LB_STRESC_K">
        <RangeCheck Comparator="EQ" SoftHard="Soft" def:ItemOID="IT.LB.LBTESTCD">
          <CheckValue>K</CheckValue>
        </RangeCheck>
      </def:WhereClauseDef>
      
<def:WhereClauseDef OID="WC.LB_STRESC_MCHC">
        <RangeCheck Comparator="EQ" SoftHard="Soft" def:ItemOID="IT.LB.LBTESTCD">
          <CheckValue>MCHC</CheckValue>
        </RangeCheck>
      </def:WhereClauseDef>
      
<def:WhereClauseDef OID="WC.LB_STRESC_RBC">
        <RangeCheck Comparator="EQ" SoftHard="Soft" def:ItemOID="IT.LB.LBTESTCD">
          <CheckValue>RBC</CheckValue>
        </RangeCheck>
      </def:WhereClauseDef>
      
<def:WhereClauseDef OID="WC.LB_STRESC_SET1">
        <RangeCheck Comparator="IN" SoftHard="Soft" def:ItemOID="IT.LB.LBTESTCD">
          <CheckValue>BASO</CheckValue>
          <CheckValue>EOS</CheckValue>
          <CheckValue>LYM</CheckValue>
          <CheckValue>MONO</CheckValue>
          <CheckValue>RBC</CheckValue>
          <CheckValue>TSH</CheckValue>
          <CheckValue>WBC</CheckValue>
        </RangeCheck>
      </def:WhereClauseDef>
      
<def:WhereClauseDef OID="WC.LB_STRESC_SET2">
        <RangeCheck Comparator="IN" SoftHard="Soft" def:ItemOID="IT.LB.LBTESTCD">
          <CheckValue>SPGRAV</CheckValue>
          <CheckValue>UREAN</CheckValue>
        </RangeCheck>
      </def:WhereClauseDef>
      
<def:WhereClauseDef OID="WC.LB_STRESC_SET3">
        <RangeCheck Comparator="IN" SoftHard="Soft" def:ItemOID="IT.LB.LBTESTCD">
          <CheckValue>CA</CheckValue>
          <CheckValue>CHOL</CheckValue>
          <CheckValue>MCH</CheckValue>
          <CheckValue>PHOS</CheckValue>
        </RangeCheck>
      </def:WhereClauseDef>
      
<def:WhereClauseDef OID="WC.LB_STRESC_SET4">
        <RangeCheck Comparator="IN" SoftHard="Soft" def:ItemOID="IT.LB.LBTESTCD">
          <CheckValue>ANISO</CheckValue>
          <CheckValue>KETONES</CheckValue>
          <CheckValue>MACROCY</CheckValue>
          <CheckValue>PH</CheckValue>
          <CheckValue>POIKILO</CheckValue>
          <CheckValue>UROBIL</CheckValue>
        </RangeCheck>
      </def:WhereClauseDef>
      
<def:WhereClauseDef OID="WC.LB_STRESC_SET5">
        <RangeCheck Comparator="IN" SoftHard="Soft" def:ItemOID="IT.LB.LBTESTCD">
          <CheckValue>ALB</CheckValue>
          <CheckValue>ALT</CheckValue>
          <CheckValue>AST</CheckValue>
          <CheckValue>GGT</CheckValue>
          <CheckValue>PROT</CheckValue>
        </RangeCheck>
      </def:WhereClauseDef>
      
<def:WhereClauseDef OID="WC.LB_STRESC_SET6">
        <RangeCheck Comparator="IN" SoftHard="Soft" def:ItemOID="IT.LB.LBTESTCD">
          <CheckValue>ALP</CheckValue>
          <CheckValue>CL</CheckValue>
          <CheckValue>MCV</CheckValue>
          <CheckValue>PLAT</CheckValue>
          <CheckValue>SODIUM</CheckValue>
        </RangeCheck>
      </def:WhereClauseDef>
      
<def:WhereClauseDef OID="WC.LB_STRESC_URATE">
        <RangeCheck Comparator="EQ" SoftHard="Soft" def:ItemOID="IT.LB.LBTESTCD">
          <CheckValue>URATE</CheckValue>
        </RangeCheck>
      </def:WhereClauseDef>
      
<def:WhereClauseDef OID="WC.LB_STRESC_VITB12">
        <RangeCheck Comparator="EQ" SoftHard="Soft" def:ItemOID="IT.LB.LBTESTCD">
          <CheckValue>VITB12</CheckValue>
        </RangeCheck>
      </def:WhereClauseDef>
      
<def:WhereClauseDef OID="WC.LB_STRESU_UNITS_ALB_STD">
        <RangeCheck Comparator="EQ" SoftHard="Soft" def:ItemOID="IT.LB.LBTESTCD">
          <CheckValue>ALB</CheckValue>
        </RangeCheck>
      </def:WhereClauseDef>
      
<def:WhereClauseDef OID="WC.LB_STRESU_UNITS_ALP_STD">
        <RangeCheck Comparator="EQ" SoftHard="Soft" def:ItemOID="IT.LB.LBTESTCD">
          <CheckValue>ALP</CheckValue>
        </RangeCheck>
      </def:WhereClauseDef>
      
<def:WhereClauseDef OID="WC.LB_STRESU_UNITS_ALT_STD">
        <RangeCheck Comparator="EQ" SoftHard="Soft" def:ItemOID="IT.LB.LBTESTCD">
          <CheckValue>ALT</CheckValue>
        </RangeCheck>
      </def:WhereClauseDef>
      
<def:WhereClauseDef OID="WC.LB_STRESU_UNITS_AST_STD">
        <RangeCheck Comparator="EQ" SoftHard="Soft" def:ItemOID="IT.LB.LBTESTCD">
          <CheckValue>AST</CheckValue>
        </RangeCheck>
      </def:WhereClauseDef>
      
<def:WhereClauseDef OID="WC.LB_STRESU_UNITS_BASO_STD">
        <RangeCheck Comparator="EQ" SoftHard="Soft" def:ItemOID="IT.LB.LBTESTCD">
          <CheckValue>BASO</CheckValue>
        </RangeCheck>
      </def:WhereClauseDef>
      
<def:WhereClauseDef OID="WC.LB_STRESU_UNITS_BILI_STD">
        <RangeCheck Comparator="EQ" SoftHard="Soft" def:ItemOID="IT.LB.LBTESTCD">
          <CheckValue>BILI</CheckValue>
        </RangeCheck>
      </def:WhereClauseDef>
      
<def:WhereClauseDef OID="WC.LB_STRESU_UNITS_CA_STD">
        <RangeCheck Comparator="EQ" SoftHard="Soft" def:ItemOID="IT.LB.LBTESTCD">
          <CheckValue>CA</CheckValue>
        </RangeCheck>
      </def:WhereClauseDef>
      
<def:WhereClauseDef OID="WC.LB_STRESU_UNITS_CHOL_STD">
        <RangeCheck Comparator="EQ" SoftHard="Soft" def:ItemOID="IT.LB.LBTESTCD">
          <CheckValue>CHOL</CheckValue>
        </RangeCheck>
      </def:WhereClauseDef>
      
<def:WhereClauseDef OID="WC.LB_STRESU_UNITS_CK_STD">
        <RangeCheck Comparator="EQ" SoftHard="Soft" def:ItemOID="IT.LB.LBTESTCD">
          <CheckValue>CK</CheckValue>
        </RangeCheck>
      </def:WhereClauseDef>
      
<def:WhereClauseDef OID="WC.LB_STRESU_UNITS_CL_STD">
        <RangeCheck Comparator="EQ" SoftHard="Soft" def:ItemOID="IT.LB.LBTESTCD">
          <CheckValue>CL</CheckValue>
        </RangeCheck>
      </def:WhereClauseDef>
      
<def:WhereClauseDef OID="WC.LB_STRESU_UNITS_CREAT_STD">
        <RangeCheck Comparator="EQ" SoftHard="Soft" def:ItemOID="IT.LB.LBTESTCD">
          <CheckValue>CREAT</CheckValue>
        </RangeCheck>
      </def:WhereClauseDef>
      
<def:WhereClauseDef OID="WC.LB_STRESU_UNITS_EOS_STD">
        <RangeCheck Comparator="EQ" SoftHard="Soft" def:ItemOID="IT.LB.LBTESTCD">
          <CheckValue>EOS</CheckValue>
        </RangeCheck>
      </def:WhereClauseDef>
      
<def:WhereClauseDef OID="WC.LB_STRESU_UNITS_GGT_STD">
        <RangeCheck Comparator="EQ" SoftHard="Soft" def:ItemOID="IT.LB.LBTESTCD">
          <CheckValue>GGT</CheckValue>
        </RangeCheck>
      </def:WhereClauseDef>
      
<def:WhereClauseDef OID="WC.LB_STRESU_UNITS_GLUC_STD">
        <RangeCheck Comparator="EQ" SoftHard="Soft" def:ItemOID="IT.LB.LBTESTCD">
          <CheckValue>GLUC</CheckValue>
        </RangeCheck>
      </def:WhereClauseDef>
      
<def:WhereClauseDef OID="WC.LB_STRESU_UNITS_HGB_STD">
        <RangeCheck Comparator="EQ" SoftHard="Soft" def:ItemOID="IT.LB.LBTESTCD">
          <CheckValue>HGB</CheckValue>
        </RangeCheck>
      </def:WhereClauseDef>
      
<def:WhereClauseDef OID="WC.LB_STRESU_UNITS_K_STD">
        <RangeCheck Comparator="EQ" SoftHard="Soft" def:ItemOID="IT.LB.LBTESTCD">
          <CheckValue>K</CheckValue>
        </RangeCheck>
      </def:WhereClauseDef>
      
<def:WhereClauseDef OID="WC.LB_STRESU_UNITS_LYM_STD">
        <RangeCheck Comparator="EQ" SoftHard="Soft" def:ItemOID="IT.LB.LBTESTCD">
          <CheckValue>LYM</CheckValue>
        </RangeCheck>
      </def:WhereClauseDef>
      
<def:WhereClauseDef OID="WC.LB_STRESU_UNITS_MCHC_STD">
        <RangeCheck Comparator="EQ" SoftHard="Soft" def:ItemOID="IT.LB.LBTESTCD">
          <CheckValue>MCHC</CheckValue>
        </RangeCheck>
      </def:WhereClauseDef>
      
<def:WhereClauseDef OID="WC.LB_STRESU_UNITS_MCH_STD">
        <RangeCheck Comparator="EQ" SoftHard="Soft" def:ItemOID="IT.LB.LBTESTCD">
          <CheckValue>MCH</CheckValue>
        </RangeCheck>
      </def:WhereClauseDef>
      
<def:WhereClauseDef OID="WC.LB_STRESU_UNITS_MCV_STD">
        <RangeCheck Comparator="EQ" SoftHard="Soft" def:ItemOID="IT.LB.LBTESTCD">
          <CheckValue>MCV</CheckValue>
        </RangeCheck>
      </def:WhereClauseDef>
      
<def:WhereClauseDef OID="WC.LB_STRESU_UNITS_MONO_STD">
        <RangeCheck Comparator="EQ" SoftHard="Soft" def:ItemOID="IT.LB.LBTESTCD">
          <CheckValue>MONO</CheckValue>
        </RangeCheck>
      </def:WhereClauseDef>
      
<def:WhereClauseDef OID="WC.LB_STRESU_UNITS_PHOS_STD">
        <RangeCheck Comparator="EQ" SoftHard="Soft" def:ItemOID="IT.LB.LBTESTCD">
          <CheckValue>PHOS</CheckValue>
        </RangeCheck>
      </def:WhereClauseDef>
      
<def:WhereClauseDef OID="WC.LB_STRESU_UNITS_PLAT_STD">
        <RangeCheck Comparator="EQ" SoftHard="Soft" def:ItemOID="IT.LB.LBTESTCD">
          <CheckValue>PLAT</CheckValue>
        </RangeCheck>
      </def:WhereClauseDef>
      
<def:WhereClauseDef OID="WC.LB_STRESU_UNITS_PROT_STD">
        <RangeCheck Comparator="EQ" SoftHard="Soft" def:ItemOID="IT.LB.LBTESTCD">
          <CheckValue>PROT</CheckValue>
        </RangeCheck>
      </def:WhereClauseDef>
      
<def:WhereClauseDef OID="WC.LB_STRESU_UNITS_RBC_STD">
        <RangeCheck Comparator="EQ" SoftHard="Soft" def:ItemOID="IT.LB.LBTESTCD">
          <CheckValue>RBC</CheckValue>
        </RangeCheck>
      </def:WhereClauseDef>
      
<def:WhereClauseDef OID="WC.LB_STRESU_UNITS_SODIUM_STD">
        <RangeCheck Comparator="EQ" SoftHard="Soft" def:ItemOID="IT.LB.LBTESTCD">
          <CheckValue>SODIUM</CheckValue>
        </RangeCheck>
      </def:WhereClauseDef>
      
<def:WhereClauseDef OID="WC.LB_STRESU_UNITS_TSH_STD">
        <RangeCheck Comparator="EQ" SoftHard="Soft" def:ItemOID="IT.LB.LBTESTCD">
          <CheckValue>TSH</CheckValue>
        </RangeCheck>
      </def:WhereClauseDef>
      
<def:WhereClauseDef OID="WC.LB_STRESU_UNITS_URATE_STD">
        <RangeCheck Comparator="EQ" SoftHard="Soft" def:ItemOID="IT.LB.LBTESTCD">
          <CheckValue>URATE</CheckValue>
        </RangeCheck>
      </def:WhereClauseDef>
      
<def:WhereClauseDef OID="WC.LB_STRESU_UNITS_UREAN_STD">
        <RangeCheck Comparator="EQ" SoftHard="Soft" def:ItemOID="IT.LB.LBTESTCD">
          <CheckValue>UREAN</CheckValue>
        </RangeCheck>
      </def:WhereClauseDef>
      
<def:WhereClauseDef OID="WC.LB_STRESU_UNITS_VITB12_STD">
        <RangeCheck Comparator="EQ" SoftHard="Soft" def:ItemOID="IT.LB.LBTESTCD">
          <CheckValue>VITB12</CheckValue>
        </RangeCheck>
      </def:WhereClauseDef>
      
<def:WhereClauseDef OID="WC.LB_STRESU_UNITS_WBC_STD">
        <RangeCheck Comparator="EQ" SoftHard="Soft" def:ItemOID="IT.LB.LBTESTCD">
          <CheckValue>WBC</CheckValue>
        </RangeCheck>
      </def:WhereClauseDef>
      
<def:WhereClauseDef OID="WC.NVCLSIG">
        <RangeCheck Comparator="EQ" SoftHard="Soft" def:ItemOID="IT.SUPPNV.QNAM">
          <CheckValue>NVCLSIG</CheckValue>
        </RangeCheck>
      </def:WhereClauseDef>
      
<def:WhereClauseDef OID="WC.OECLSIG">
        <RangeCheck Comparator="EQ" SoftHard="Soft" def:ItemOID="IT.SUPPOE.QNAM">
          <CheckValue>OECLSIG</CheckValue>
        </RangeCheck>
      </def:WhereClauseDef>
      
<def:WhereClauseDef OID="WC.OEORRES1">
        <RangeCheck Comparator="EQ" SoftHard="Soft" def:ItemOID="IT.OE.OETESTCD">
          <CheckValue>INTP</CheckValue>
        </RangeCheck>
      </def:WhereClauseDef>
      
<def:WhereClauseDef OID="WC.OEORRES2">
        <RangeCheck Comparator="EQ" SoftHard="Soft" def:ItemOID="IT.OE.OETESTCD">
          <CheckValue>ABDETAIL</CheckValue>
        </RangeCheck>
      </def:WhereClauseDef>
      
<def:WhereClauseDef OID="WC.PHQ0101-09">
        <RangeCheck Comparator="IN" SoftHard="Soft" def:ItemOID="IT.QSPH.QSTESTCD">
          <CheckValue>PHQ0101</CheckValue>
          <CheckValue>PHQ0102</CheckValue>
          <CheckValue>PHQ0103</CheckValue>
          <CheckValue>PHQ0104</CheckValue>
          <CheckValue>PHQ0105</CheckValue>
          <CheckValue>PHQ0106</CheckValue>
          <CheckValue>PHQ0107</CheckValue>
          <CheckValue>PHQ0108</CheckValue>
          <CheckValue>PHQ0109</CheckValue>
        </RangeCheck>
      </def:WhereClauseDef>
      
<def:WhereClauseDef OID="WC.PHQ0101-09S">
        <RangeCheck Comparator="IN" SoftHard="Soft" def:ItemOID="IT.QSPH.QSTESTCD">
          <CheckValue>PHQ0101</CheckValue>
          <CheckValue>PHQ0102</CheckValue>
          <CheckValue>PHQ0103</CheckValue>
          <CheckValue>PHQ0104</CheckValue>
          <CheckValue>PHQ0105</CheckValue>
          <CheckValue>PHQ0106</CheckValue>
          <CheckValue>PHQ0107</CheckValue>
          <CheckValue>PHQ0108</CheckValue>
          <CheckValue>PHQ0109</CheckValue>
        </RangeCheck>
      </def:WhereClauseDef>
      
<def:WhereClauseDef OID="WC.PHQ0110">
        <RangeCheck Comparator="EQ" SoftHard="Soft" def:ItemOID="IT.QSPH.QSTESTCD">
          <CheckValue>PHQ0110</CheckValue>
        </RangeCheck>
      </def:WhereClauseDef>
      
<def:WhereClauseDef OID="WC.PHQ0110S">
        <RangeCheck Comparator="EQ" SoftHard="Soft" def:ItemOID="IT.QSPH.QSTESTCD">
          <CheckValue>PHQ0110</CheckValue>
        </RangeCheck>
      </def:WhereClauseDef>
      
<def:WhereClauseDef OID="WC.PHQ0111">
        <RangeCheck Comparator="EQ" SoftHard="Soft" def:ItemOID="IT.QSPH.QSTESTCD">
          <CheckValue>PHQ0111</CheckValue>
        </RangeCheck>
      </def:WhereClauseDef>
      
<def:WhereClauseDef OID="WC.PHQ0111S">
        <RangeCheck Comparator="EQ" SoftHard="Soft" def:ItemOID="IT.QSPH.QSTESTCD">
          <CheckValue>PHQ0111</CheckValue>
        </RangeCheck>
      </def:WhereClauseDef>
      
<def:WhereClauseDef OID="WC.PULSE">
        <RangeCheck Comparator="EQ" SoftHard="Soft" def:ItemOID="IT.VS.VSTESTCD">
          <CheckValue>PULSE</CheckValue>
        </RangeCheck>
      </def:WhereClauseDef>
      
<def:WhereClauseDef OID="WC.PULSEU">
        <RangeCheck Comparator="EQ" SoftHard="Soft" def:ItemOID="IT.VS.VSTESTCD">
          <CheckValue>PULSE</CheckValue>
        </RangeCheck>
      </def:WhereClauseDef>
      
<def:WhereClauseDef OID="WC.RACE">
        <RangeCheck Comparator="NE" SoftHard="Soft" def:ItemOID="IT.DM.RACE">
          <CheckValue>MULTIPLE</CheckValue>
        </RangeCheck>
      </def:WhereClauseDef>
      
<def:WhereClauseDef OID="WC.RACE1">
        <RangeCheck Comparator="EQ" SoftHard="Soft" def:ItemOID="IT.SUPPDM.QNAM">
          <CheckValue>RACE1</CheckValue>
        </RangeCheck>
      </def:WhereClauseDef>
      
<def:WhereClauseDef OID="WC.RACE2">
        <RangeCheck Comparator="EQ" SoftHard="Soft" def:ItemOID="IT.SUPPDM.QNAM">
          <CheckValue>RACE2</CheckValue>
        </RangeCheck>
      </def:WhereClauseDef>
      
<def:WhereClauseDef OID="WC.RACE3">
        <RangeCheck Comparator="EQ" SoftHard="Soft" def:ItemOID="IT.SUPPDM.QNAM">
          <CheckValue>RACE3</CheckValue>
        </RangeCheck>
      </def:WhereClauseDef>
      
<def:WhereClauseDef OID="WC.RACE4">
        <RangeCheck Comparator="EQ" SoftHard="Soft" def:ItemOID="IT.SUPPDM.QNAM">
          <CheckValue>RACE4</CheckValue>
        </RangeCheck>
      </def:WhereClauseDef>
      
<def:WhereClauseDef OID="WC.RACE5">
        <RangeCheck Comparator="EQ" SoftHard="Soft" def:ItemOID="IT.SUPPDM.QNAM">
          <CheckValue>RACE5</CheckValue>
        </RangeCheck>
      </def:WhereClauseDef>
      
<def:WhereClauseDef OID="WC.RACEMULT">
        <RangeCheck Comparator="EQ" SoftHard="Soft" def:ItemOID="IT.DM.RACE">
          <CheckValue>MULTIPLE</CheckValue>
        </RangeCheck>
      </def:WhereClauseDef>
      
<def:WhereClauseDef OID="WC.TEMP">
        <RangeCheck Comparator="EQ" SoftHard="Soft" def:ItemOID="IT.VS.VSTESTCD">
          <CheckValue>TEMP</CheckValue>
        </RangeCheck>
      </def:WhereClauseDef>
      
<def:WhereClauseDef OID="WC.TEMPU">
        <RangeCheck Comparator="EQ" SoftHard="Soft" def:ItemOID="IT.VS.VSTESTCD">
          <CheckValue>TEMP</CheckValue>
        </RangeCheck>
      </def:WhereClauseDef>
      
<def:WhereClauseDef OID="WC.TS_BLIND">
        <RangeCheck Comparator="EQ" SoftHard="Soft" def:ItemOID="IT.TS.TSPARMCD">
          <CheckValue>TBLIND</CheckValue>
        </RangeCheck>
      </def:WhereClauseDef>
      
<def:WhereClauseDef OID="WC.TS_CONTROL">
        <RangeCheck Comparator="EQ" SoftHard="Soft" def:ItemOID="IT.TS.TSPARMCD">
          <CheckValue>TCNTRL</CheckValue>
        </RangeCheck>
      </def:WhereClauseDef>
      
<def:WhereClauseDef OID="WC.TS_COUNTRY">
        <RangeCheck Comparator="EQ" SoftHard="Soft" def:ItemOID="IT.TS.TSPARMCD">
          <CheckValue>FCNTRY</CheckValue>
        </RangeCheck>
      </def:WhereClauseDef>
      
<def:WhereClauseDef OID="WC.TS_DATE">
        <RangeCheck Comparator="IN" SoftHard="Soft" def:ItemOID="IT.TS.TSPARMCD">
          <CheckValue>DCUTDTC</CheckValue>
          <CheckValue>SENDTC</CheckValue>
          <CheckValue>SSTDTC</CheckValue>
        </RangeCheck>
      </def:WhereClauseDef>
      
<def:WhereClauseDef OID="WC.TS_DURATION">
        <RangeCheck Comparator="EQ" SoftHard="Soft" def:ItemOID="IT.TS.TSPARMCD">
          <CheckValue>TS_DURATION</CheckValue>
        </RangeCheck>
      </def:WhereClauseDef>
      
<def:WhereClauseDef OID="WC.TS_FLOAT">
        <RangeCheck Comparator="EQ" SoftHard="Soft" def:ItemOID="IT.TS.TSPARMCD">
          <CheckValue>TS_FLOAT</CheckValue>
        </RangeCheck>
      </def:WhereClauseDef>
      
<def:WhereClauseDef OID="WC.TS_FREQ">
        <RangeCheck Comparator="EQ" SoftHard="Soft" def:ItemOID="IT.TS.TSPARMCD">
          <CheckValue>DOSFRQ</CheckValue>
        </RangeCheck>
      </def:WhereClauseDef>
      
<def:WhereClauseDef OID="WC.TS_FRM">
        <RangeCheck Comparator="EQ" SoftHard="Soft" def:ItemOID="IT.TS.TSPARMCD">
          <CheckValue>DOSFRM</CheckValue>
        </RangeCheck>
      </def:WhereClauseDef>
      
<def:WhereClauseDef OID="WC.TS_INDIC">
        <RangeCheck Comparator="EQ" SoftHard="Soft" def:ItemOID="IT.TS.TSPARMCD">
          <CheckValue>INDIC</CheckValue>
        </RangeCheck>
      </def:WhereClauseDef>
      
<def:WhereClauseDef OID="WC.TS_INTEGER">
        <RangeCheck Comparator="IN" SoftHard="Soft" def:ItemOID="IT.TS.TSPARMCD">
          <CheckValue>ACTSUB</CheckValue>
          <CheckValue>AGEMAX</CheckValue>
          <CheckValue>AGEMIN</CheckValue>
          <CheckValue>DOSE</CheckValue>
          <CheckValue>NARMS</CheckValue>
          <CheckValue>PLANSUB</CheckValue>
        </RangeCheck>
      </def:WhereClauseDef>
      
<def:WhereClauseDef OID="WC.TS_INTTYPE">
        <RangeCheck Comparator="EQ" SoftHard="Soft" def:ItemOID="IT.TS.TSPARMCD">
          <CheckValue>INTTYPE</CheckValue>
        </RangeCheck>
      </def:WhereClauseDef>
      
<def:WhereClauseDef OID="WC.TS_MODEL">
        <RangeCheck Comparator="EQ" SoftHard="Soft" def:ItemOID="IT.TS.TSPARMCD">
          <CheckValue>INTMODEL</CheckValue>
        </RangeCheck>
      </def:WhereClauseDef>
      
<def:WhereClauseDef OID="WC.TS_OBJPRIM">
        <RangeCheck Comparator="EQ" SoftHard="Soft" def:ItemOID="IT.TS.TSPARMCD">
          <CheckValue>OBJPRIM</CheckValue>
        </RangeCheck>
      </def:WhereClauseDef>
      
<def:WhereClauseDef OID="WC.TS_OBJSEC">
        <RangeCheck Comparator="EQ" SoftHard="Soft" def:ItemOID="IT.TS.TSPARMCD">
          <CheckValue>OBJSEC</CheckValue>
        </RangeCheck>
      </def:WhereClauseDef>
      
<def:WhereClauseDef OID="WC.TS_OUTMSPRI">
        <RangeCheck Comparator="EQ" SoftHard="Soft" def:ItemOID="IT.TS.TSPARMCD">
          <CheckValue>OUTMSPRI</CheckValue>
        </RangeCheck>
      </def:WhereClauseDef>
      
<def:WhereClauseDef OID="WC.TS_PCLAS">
        <RangeCheck Comparator="EQ" SoftHard="Soft" def:ItemOID="IT.TS.TSPARMCD">
          <CheckValue>PCLAS</CheckValue>
        </RangeCheck>
      </def:WhereClauseDef>
      
<def:WhereClauseDef OID="WC.TS_PHASE">
        <RangeCheck Comparator="EQ" SoftHard="Soft" def:ItemOID="IT.TS.TSPARMCD">
          <CheckValue>TPHASE</CheckValue>
        </RangeCheck>
      </def:WhereClauseDef>
      
<def:WhereClauseDef OID="WC.TS_REGID">
        <RangeCheck Comparator="EQ" SoftHard="Soft" def:ItemOID="IT.TS.TSPARMCD">
          <CheckValue>REGID</CheckValue>
        </RangeCheck>
      </def:WhereClauseDef>
      
<def:WhereClauseDef OID="WC.TS_ROUTE">
        <RangeCheck Comparator="EQ" SoftHard="Soft" def:ItemOID="IT.TS.TSPARMCD">
          <CheckValue>ROUTE</CheckValue>
        </RangeCheck>
      </def:WhereClauseDef>
      
<def:WhereClauseDef OID="WC.TS_SDTM">
        <RangeCheck Comparator="IN" SoftHard="Soft" def:ItemOID="IT.TS.TSPARMCD">
          <CheckValue>SDTIGVER</CheckValue>
          <CheckValue>SDTMVER</CheckValue>
        </RangeCheck>
      </def:WhereClauseDef>
      
<def:WhereClauseDef OID="WC.TS_SEX">
        <RangeCheck Comparator="EQ" SoftHard="Soft" def:ItemOID="IT.TS.TSPARMCD">
          <CheckValue>SEXPOP</CheckValue>
        </RangeCheck>
      </def:WhereClauseDef>
      
<def:WhereClauseDef OID="WC.TS_SPONSOR">
        <RangeCheck Comparator="EQ" SoftHard="Soft" def:ItemOID="IT.TS.TSPARMCD">
          <CheckValue>SPONSOR</CheckValue>
        </RangeCheck>
      </def:WhereClauseDef>
      
<def:WhereClauseDef OID="WC.TS_STOPRULE">
        <RangeCheck Comparator="EQ" SoftHard="Soft" def:ItemOID="IT.TS.TSPARMCD">
          <CheckValue>STOPRULE</CheckValue>
        </RangeCheck>
      </def:WhereClauseDef>
      
<def:WhereClauseDef OID="WC.TS_STYPE">
        <RangeCheck Comparator="EQ" SoftHard="Soft" def:ItemOID="IT.TS.TSPARMCD">
          <CheckValue>STYPE</CheckValue>
        </RangeCheck>
      </def:WhereClauseDef>
      
<def:WhereClauseDef OID="WC.TS_TDIGRP">
        <RangeCheck Comparator="EQ" SoftHard="Soft" def:ItemOID="IT.TS.TSPARMCD">
          <CheckValue>TDIGRP</CheckValue>
        </RangeCheck>
      </def:WhereClauseDef>
      
<def:WhereClauseDef OID="WC.TS_TINDTP">
        <RangeCheck Comparator="EQ" SoftHard="Soft" def:ItemOID="IT.TS.TSPARMCD">
          <CheckValue>TINDTP</CheckValue>
        </RangeCheck>
      </def:WhereClauseDef>
      
<def:WhereClauseDef OID="WC.TS_TITLE">
        <RangeCheck Comparator="EQ" SoftHard="Soft" def:ItemOID="IT.TS.TSPARMCD">
          <CheckValue>TITLE</CheckValue>
        </RangeCheck>
      </def:WhereClauseDef>
      
<def:WhereClauseDef OID="WC.TS_TRT">
        <RangeCheck Comparator="EQ" SoftHard="Soft" def:ItemOID="IT.TS.TSPARMCD">
          <CheckValue>TRT</CheckValue>
        </RangeCheck>
      </def:WhereClauseDef>
      
<def:WhereClauseDef OID="WC.TS_TTYPE">
        <RangeCheck Comparator="EQ" SoftHard="Soft" def:ItemOID="IT.TS.TSPARMCD">
          <CheckValue>TTYPE</CheckValue>
        </RangeCheck>
      </def:WhereClauseDef>
      
<def:WhereClauseDef OID="WC.TS_UNIT">
        <RangeCheck Comparator="EQ" SoftHard="Soft" def:ItemOID="IT.TS.TSPARMCD">
          <CheckValue>DOSU</CheckValue>
        </RangeCheck>
      </def:WhereClauseDef>
      
<def:WhereClauseDef OID="WC.TS_YN">
        <RangeCheck Comparator="IN" SoftHard="Soft" def:ItemOID="IT.TS.TSPARMCD">
          <CheckValue>ADAPT</CheckValue>
          <CheckValue>ADDON</CheckValue>
          <CheckValue>HLTSUBJI</CheckValue>
          <CheckValue>RANDOM</CheckValue>
        </RangeCheck>
      </def:WhereClauseDef>
      
<def:WhereClauseDef OID="WC.WEIGHT">
        <RangeCheck Comparator="EQ" SoftHard="Soft" def:ItemOID="IT.VS.VSTESTCD">
          <CheckValue>WEIGHT</CheckValue>
        </RangeCheck>
      </def:WhereClauseDef>
      
<def:WhereClauseDef OID="WC.WEIGHTU">
        <RangeCheck Comparator="EQ" SoftHard="Soft" def:ItemOID="IT.VS.VSTESTCD">
          <CheckValue>WEIGHT</CheckValue>
        </RangeCheck>
      </def:WhereClauseDef>


      

        <def:leaf ID="LF.TA" xlink:href="ta.xpt">
          <def:title>ta.xpt</def:title>
        </def:leaf>
      

        <def:leaf ID="LF.TE" xlink:href="te.xpt">
          <def:title>te.xpt</def:title>
        </def:leaf>
      

        <def:leaf ID="LF.TI" xlink:href="ti.xpt">
          <def:title>ti.xpt</def:title>
        </def:leaf>
      

        <def:leaf ID="LF.TS" xlink:href="ts.xpt">
          <def:title>ts.xpt</def:title>
        </def:leaf>
      

        <def:leaf ID="LF.TV" xlink:href="tv.xpt">
          <def:title>tv.xpt</def:title>
        </def:leaf>
      

        <def:leaf ID="LF.DM" xlink:href="dm.xpt">
          <def:title>dm.xpt</def:title>
        </def:leaf>
      

        <def:leaf ID="LF.SE" xlink:href="se.xpt">
          <def:title>se.xpt</def:title>
        </def:leaf>
      

        <def:leaf ID="LF.SV" xlink:href="sv.xpt">
          <def:title>sv.xpt</def:title>
        </def:leaf>
      

        <def:leaf ID="LF.CM" xlink:href="cm.xpt">
          <def:title>cm.xpt</def:title>
        </def:leaf>
      

        <def:leaf ID="LF.EC" xlink:href="ec.xpt">
          <def:title>ec.xpt</def:title>
        </def:leaf>
      

        <def:leaf ID="LF.EX" xlink:href="ex.xpt">
          <def:title>ex.xpt</def:title>
        </def:leaf>
      

        <def:leaf ID="LF.AE" xlink:href="ae.xpt">
          <def:title>ae.xpt</def:title>
        </def:leaf>
      

        <def:leaf ID="LF.DS" xlink:href="ds.xpt">
          <def:title>ds.xpt</def:title>
        </def:leaf>
      

        <def:leaf ID="LF.MH" xlink:href="mh.xpt">
          <def:title>mh.xpt</def:title>
        </def:leaf>
      

        <def:leaf ID="LF.DD" xlink:href="dd.xpt">
          <def:title>dd.xpt</def:title>
        </def:leaf>
      

        <def:leaf ID="LF.FT" xlink:href="ft.xpt">
          <def:title>ft.xpt</def:title>
        </def:leaf>
      

        <def:leaf ID="LF.IE" xlink:href="ie.xpt">
          <def:title>ie.xpt</def:title>
        </def:leaf>
      

        <def:leaf ID="LF.LB" xlink:href="lb.xpt">
          <def:title>lb.xpt</def:title>
        </def:leaf>
      

        <def:leaf ID="LF.OE" xlink:href="oe.xpt">
          <def:title>oe.xpt</def:title>
        </def:leaf>
      

        <def:leaf ID="LF.QSPH" xlink:href="qsph.xpt">
          <def:title>qsph.xpt</def:title>
        </def:leaf>
      

        <def:leaf ID="LF.QSSL" xlink:href="qssl.xpt">
          <def:title>qssl.xpt</def:title>
        </def:leaf>
      

        <def:leaf ID="LF.RS" xlink:href="rs.xpt">
          <def:title>rs.xpt</def:title>
        </def:leaf>
      

        <def:leaf ID="LF.VS" xlink:href="vs.xpt">
          <def:title>vs.xpt</def:title>
        </def:leaf>
      

        <def:leaf ID="LF.FA" xlink:href="fa.xpt">
          <def:title>fa.xpt</def:title>
        </def:leaf>
      

        <def:leaf ID="LF.RELREC" xlink:href="relrec.xpt">
          <def:title>relrec.xpt</def:title>
        </def:leaf>
      

        <def:leaf ID="LF.SUPPDM" xlink:href="suppdm.xpt">
          <def:title>suppdm.xpt</def:title>
        </def:leaf>
      

        <def:leaf ID="LF.SUPPEC" xlink:href="suppec.xpt">
          <def:title>suppec.xpt</def:title>
        </def:leaf>
      

        <def:leaf ID="LF.DI" xlink:href="di.xpt">
          <def:title>di.xpt</def:title>
        </def:leaf>
      

        <CodeListRef CodeListOID="CL.DOMAIN_AE"/>
        <def:Origin Type="Assigned" Source="Sponsor"/>
      </ItemDef>
      <ItemDef OID="IT.AE.USUBJID" Name="USUBJID" DataType="text" Length="8" SASFieldName="USUBJID">
        <Description>
          <TranslatedText xml:lang="en">Unique Subject Identifier</TranslatedText>
        </Description>
        <def:Origin Type="Assigned" Source="Sponsor"/>
      </ItemDef>
      <ItemDef OID="IT.AE.AESEQ" Name="AESEQ" DataType="integer" Length="3" SASFieldName="AESEQ">
        <Description>
          <TranslatedText xml:lang="en">Sequence Number</TranslatedText>
        </Description>
        <def:Origin Type="Derived" Source="Sponsor"/>
      </ItemDef>
      <ItemDef OID="IT.AE.AELNKID" Name="AELNKID" DataType="text" Length="50" SASFieldName="AELNKID">
        <Description>
          <TranslatedText xml:lang="en">Link ID</TranslatedText>
        </Description>
        <def:Origin Type="Collected" Source="Investigator">
          <def:DocumentRef leafID="LF.acrf">
            <def:PDFPageRef PageRefs="22 23" Type="PhysicalRef"/>
          </def:DocumentRef>
        </def:Origin>
      </ItemDef>
      <ItemDef OID="IT.AE.AETERM" Name="AETERM" DataType="text" Length="200" SASFieldName="AETERM">
        <Description>
          <TranslatedText xml:lang="en">Reported Term for the Adverse Event</TranslatedText>
        </Description>
        <def:ValueListRef ValueListOID="VL.AETERM"/>
      </ItemDef>
      <ItemDef OID="IT.AE.AELLT" Name="AELLT" DataType="text" Length="1" SASFieldName="AELLT"
        def:CommentOID="COM.AE3">
        <Description>
          <TranslatedText xml:lang="en">Lowest Level Term</TranslatedText>
        </Description>
        <CodeListRef CodeListOID="CL.MEDDRA"/>
        <def:Origin Type="Assigned" Source="Sponsor"/>
      </ItemDef>
      <ItemDef OID="IT.AE.AELLTCD" Name="AELLTCD" DataType="text" Length="1" SASFieldName="AELLTCD"
        def:CommentOID="COM.AE3">
        <Description>
          <TranslatedText xml:lang="en">Lowest Level Term Code</TranslatedText>
        </Description>
        <CodeListRef CodeListOID="CL.MEDDRA"/>
        <def:Origin Type="Assigned" Source="Sponsor"/>
      </ItemDef>
      <ItemDef OID="IT.AE.AEDECOD" Name="AEDECOD" DataType="text" Length="1" SASFieldName="AEDECOD"
        def:CommentOID="COM.AEDECOD">
        <Description>
          <TranslatedText xml:lang="en">Dictionary-Derived Term</TranslatedText>
        </Description>
        <CodeListRef CodeListOID="CL.MEDDRA"/>
        <def:Origin Type="Assigned" Source="Sponsor"/>
      </ItemDef>
      <ItemDef OID="IT.AE.AEPTCD" Name="AEPTCD" DataType="text" Length="1" SASFieldName="AEPTCD"
        def:CommentOID="COM.AE3">
        <Description>
          <TranslatedText xml:lang="en">Preferred Term Code</TranslatedText>
        </Description>
        <CodeListRef CodeListOID="CL.MEDDRA"/>
        <def:Origin Type="Assigned" Source="Sponsor"/>
      </ItemDef>
      <ItemDef OID="IT.AE.AEHLT" Name="AEHLT" DataType="text" Length="1" SASFieldName="AEHLT"
        def:CommentOID="COM.AE3">
        <Description>
          <TranslatedText xml:lang="en">High Level Term</TranslatedText>
        </Description>
        <CodeListRef CodeListOID="CL.MEDDRA"/>
        <def:Origin Type="Assigned" Source="Sponsor"/>
      </ItemDef>
      <ItemDef OID="IT.AE.AEHLTCD" Name="AEHLTCD" DataType="text" Length="1" SASFieldName="AEHLTCD"
        def:CommentOID="COM.AE3">
        <Description>
          <TranslatedText xml:lang="en">High Level Term Code</TranslatedText>
        </Description>
        <CodeListRef CodeListOID="CL.MEDDRA"/>
        <def:Origin Type="Assigned" Source="Sponsor"/>
      </ItemDef>
      <ItemDef OID="IT.AE.AEHLGT" Name="AEHLGT" DataType="text" Length="1" SASFieldName="AEHLGT"
        def:CommentOID="COM.AE3">
        <Description>
          <TranslatedText xml:lang="en">High Level Group Term</TranslatedText>
        </Description>
        <CodeListRef CodeListOID="CL.MEDDRA"/>
        <def:Origin Type="Assigned" Source="Sponsor"/>
      </ItemDef>
      <ItemDef OID="IT.AE.AEHLGTCD" Name="AEHLGTCD" DataType="text" Length="1" SASFieldName="AEHLGTCD"
        def:CommentOID="COM.AE3">
        <Description>
          <TranslatedText xml:lang="en">High Level Group Term Code</TranslatedText>
        </Description>
        <CodeListRef CodeListOID="CL.MEDDRA"/>
        <def:Origin Type="Assigned" Source="Sponsor"/>
      </ItemDef>
      <ItemDef OID="IT.AE.AEBODSYS" Name="AEBODSYS" DataType="text" Length="1" SASFieldName="AEBODSYS"
        def:CommentOID="COM.AE3">
        <Description>
          <TranslatedText xml:lang="en">Body System or Organ Class</TranslatedText>
        </Description>
        <CodeListRef CodeListOID="CL.MEDDRA"/>
        <def:Origin Type="Assigned" Source="Sponsor"/>
      </ItemDef>
      <ItemDef OID="IT.AE.AEBDSYCD" Name="AEBDSYCD" DataType="text" Length="1" SASFieldName="AEBDSYCD"
        def:CommentOID="COM.AE3">
        <Description>
          <TranslatedText xml:lang="en">Body System or Organ Class Code</TranslatedText>
        </Description>
        <CodeListRef CodeListOID="CL.MEDDRA"/>
        <def:Origin Type="Assigned" Source="Sponsor"/>
      </ItemDef>
      <ItemDef OID="IT.AE.AESOC" Name="AESOC" DataType="text" Length="1" SASFieldName="AESOC"
        def:CommentOID="COM.AE3">
        <Description>
          <TranslatedText xml:lang="en">Primary System Organ Class</TranslatedText>
        </Description>
        <CodeListRef CodeListOID="CL.MEDDRA"/>
        <def:Origin Type="Assigned" Source="Sponsor"/>
      </ItemDef>
      <ItemDef OID="IT.AE.AESOCCD" Name="AESOCCD" DataType="text" Length="1" SASFieldName="AESOCCD"
        def:CommentOID="COM.AE3">
        <Description>
          <TranslatedText xml:lang="en">Primary System Organ Class Code</TranslatedText>
        </Description>
        <CodeListRef CodeListOID="CL.MEDDRA"/>
        <def:Origin Type="Assigned" Source="Sponsor"/>
      </ItemDef>
      <ItemDef OID="IT.AE.AESEV" Name="AESEV" DataType="text" Length="8" SASFieldName="AESEV">
        <Description>
          <TranslatedText xml:lang="en">Severity/Intensity</TranslatedText>
        </Description>
        <CodeListRef CodeListOID="CL.AESEV"/>
        <def:Origin Type="Collected" Source="Investigator">
          <def:DocumentRef leafID="LF.acrf">
            <def:PDFPageRef PageRefs="22 23" Type="PhysicalRef"/>
          </def:DocumentRef>
        </def:Origin>
      </ItemDef>
      <ItemDef OID="IT.AE.AESER" Name="AESER" DataType="text" Length="1" SASFieldName="AESER"
        def:CommentOID="COM.AESER">
        <Description>
          <TranslatedText xml:lang="en">Serious Event</TranslatedText>
        </Description>
        <CodeListRef CodeListOID="CL.NY_NY"/>
        <def:Origin Type="Collected" Source="Investigator">
          <def:DocumentRef leafID="LF.acrf">
            <def:PDFPageRef PageRefs="22 23" Type="PhysicalRef"/>
          </def:DocumentRef>
        </def:Origin>
      </ItemDef>
      <ItemDef OID="IT.AE.AEACN" Name="AEACN" DataType="text" Length="16" SASFieldName="AEACN">
        <Description>
          <TranslatedText xml:lang="en">Action Taken with Study Treatment</TranslatedText>
        </Description>
        <CodeListRef CodeListOID="CL.ACN"/>
        <def:Origin Type="Collected" Source="Investigator">
          <def:DocumentRef leafID="LF.acrf">
            <def:PDFPageRef PageRefs="22 23" Type="PhysicalRef"/>
          </def:DocumentRef>
        </def:Origin>
      </ItemDef>
      <ItemDef OID="IT.AE.AEREL" Name="AEREL" DataType="text" Length="16" SASFieldName="AEREL">
        <Description>
          <TranslatedText xml:lang="en">Causality</TranslatedText>
        </Description>
        <CodeListRef CodeListOID="CL.AEREL"/>
        <def:Origin Type="Collected" Source="Investigator">
          <def:DocumentRef leafID="LF.acrf">
            <def:PDFPageRef PageRefs="22 23" Type="PhysicalRef"/>
          </def:DocumentRef>
        </def:Origin>
      </ItemDef>
      <ItemDef OID="IT.AE.AEOUT" Name="AEOUT" DataType="text" Length="32" SASFieldName="AEOUT">
        <Description>
          <TranslatedText xml:lang="en">Outcome of Adverse Event</TranslatedText>
        </Description>
        <CodeListRef CodeListOID="CL.OUT"/>
        <def:Origin Type="Collected" Source="Investigator">
          <def:DocumentRef leafID="LF.acrf">
            <def:PDFPageRef PageRefs="22 23" Type="PhysicalRef"/>
          </def:DocumentRef>
        </def:Origin>
      </ItemDef>
      <ItemDef OID="IT.AE.AESCAN" Name="AESCAN" DataType="text" Length="1" SASFieldName="AESCAN">
        <Description>
          <TranslatedText xml:lang="en">Involves Cancer</TranslatedText>
        </Description>
        <CodeListRef CodeListOID="CL.NY_NY"/>
        <def:Origin Type="Collected" Source="Investigator">
          <def:DocumentRef leafID="LF.acrf">
            <def:PDFPageRef PageRefs="22 23" Type="PhysicalRef"/>
          </def:DocumentRef>
        </def:Origin>
      </ItemDef>
      <ItemDef OID="IT.AE.AESCONG" Name="AESCONG" DataType="text" Length="1" SASFieldName="AESCONG">
        <Description>
          <TranslatedText xml:lang="en">Congenital Anomaly or Birth Defect</TranslatedText>
        </Description>
        <CodeListRef CodeListOID="CL.NY_NY"/>
        <def:Origin Type="Collected" Source="Investigator">
          <def:DocumentRef leafID="LF.acrf">
            <def:PDFPageRef PageRefs="22 23" Type="PhysicalRef"/>
          </def:DocumentRef>
        </def:Origin>
      </ItemDef>
      <ItemDef OID="IT.AE.AESDISAB" Name="AESDISAB" DataType="text" Length="1" SASFieldName="AESDISAB">
        <Description>
          <TranslatedText xml:lang="en">Persist or Signif Disability/Incapacity</TranslatedText>
        </Description>
        <CodeListRef CodeListOID="CL.NY_NY"/>
        <def:Origin Type="Collected" Source="Investigator">
          <def:DocumentRef leafID="LF.acrf">
            <def:PDFPageRef PageRefs="22 23" Type="PhysicalRef"/>
          </def:DocumentRef>
        </def:Origin>
      </ItemDef>
      <ItemDef OID="IT.AE.AESDTH" Name="AESDTH" DataType="text" Length="1" SASFieldName="AESDTH">
        <Description>
          <TranslatedText xml:lang="en">Results in Death</TranslatedText>
        </Description>
        <CodeListRef CodeListOID="CL.NY_NY"/>
        <def:Origin Type="Collected" Source="Investigator">
          <def:DocumentRef leafID="LF.acrf">
            <def:PDFPageRef PageRefs="22 23" Type="PhysicalRef"/>
          </def:DocumentRef>
        </def:Origin>
      </ItemDef>
      <ItemDef OID="IT.AE.AESHOSP" Name="AESHOSP" DataType="text" Length="1" SASFieldName="AESHOSP">
        <Description>
          <TranslatedText xml:lang="en">Requires or Prolongs Hospitalization</TranslatedText>
        </Description>
        <CodeListRef CodeListOID="CL.NY_NY"/>
        <def:Origin Type="Collected" Source="Investigator">
          <def:DocumentRef leafID="LF.acrf">
            <def:PDFPageRef PageRefs="22 23" Type="PhysicalRef"/>
          </def:DocumentRef>
        </def:Origin>
      </ItemDef>
      <ItemDef OID="IT.AE.AESLIFE" Name="AESLIFE" DataType="text" Length="1" SASFieldName="AESLIFE">
        <Description>
          <TranslatedText xml:lang="en">Is Life Threatening</TranslatedText>
        </Description>
        <CodeListRef CodeListOID="CL.NY_NY"/>
        <def:Origin Type="Collected" Source="Investigator">
          <def:DocumentRef leafID="LF.acrf">
            <def:PDFPageRef PageRefs="22 23" Type="PhysicalRef"/>
          </def:DocumentRef>
        </def:Origin>
      </ItemDef>
      <ItemDef OID="IT.AE.AESOD" Name="AESOD" DataType="text" Length="1" SASFieldName="AESOD">
        <Description>
          <TranslatedText xml:lang="en">Occurred with Overdose</TranslatedText>
        </Description>
        <CodeListRef CodeListOID="CL.NY_NY"/>
        <def:Origin Type="Collected" Source="Investigator">
          <def:DocumentRef leafID="LF.acrf">
            <def:PDFPageRef PageRefs="22 23" Type="PhysicalRef"/>
          </def:DocumentRef>
        </def:Origin>
      </ItemDef>
      <ItemDef OID="IT.AE.EPOCH" Name="EPOCH" DataType="text" Length="9" SASFieldName="EPOCH">
        <Description>
          <TranslatedText xml:lang="en">Epoch</TranslatedText>
        </Description>
        <CodeListRef CodeListOID="CL.EPOCH"/>
        <def:Origin Type="Derived" Source="Sponsor"/>
      </ItemDef>
      <ItemDef OID="IT.AE.AESTDTC" Name="AESTDTC" DataType="date" SASFieldName="AESTDTC">
        <Description>
          <TranslatedText xml:lang="en">Start Date/Time of Adverse Event</TranslatedText>
        </Description>
        <def:Origin Type="Collected" Source="Investigator">
          <def:DocumentRef leafID="LF.acrf">
            <def:PDFPageRef PageRefs="22 23" Type="PhysicalRef"/>
          </def:DocumentRef>
        </def:Origin>
      </ItemDef>
      <ItemDef OID="IT.AE.AEENDTC" Name="AEENDTC" DataType="date" SASFieldName="AEENDTC">
        <Description>
          <TranslatedText xml:lang="en">End Date/Time of Adverse Event</TranslatedText>
        </Description>
        <def:Origin Type="Collected" Source="Investigator">
          <def:DocumentRef leafID="LF.acrf">
            <def:PDFPageRef PageRefs="22 23" Type="PhysicalRef"/>
          </def:DocumentRef>
        </def:Origin>
      </ItemDef>
      <ItemDef OID="IT.AE.AESTDY" Name="AESTDY" DataType="integer" Length="8" SASFieldName="AESTDY">
        <Description>
          <TranslatedText xml:lang="en">Study Day of Start of Adverse Event</TranslatedText>
        </Description>
        <def:Origin Type="Derived" Source="Sponsor"/>
      </ItemDef>
      <ItemDef OID="IT.AE.AEENDY" Name="AEENDY" DataType="integer" Length="8" SASFieldName="AEENDY">
        <Description>
          <TranslatedText xml:lang="en">Study Day of End of Adverse Event</TranslatedText>
        </Description>
        <def:Origin Type="Derived" Source="Sponsor"/>
      </ItemDef>
      <ItemDef OID="IT.AE.AEENRTPT" Name="AEENRTPT" DataType="text" Length="7" SASFieldName="AEENRTPT">
        <Description>
          <TranslatedText xml:lang="en">End Relative to Reference Time Point</TranslatedText>
        </Description>
        <CodeListRef CodeListOID="CL.ENRTPT_CM_AE"/>
        <def:Origin Type="Collected" Source="Investigator">
          <def:DocumentRef leafID="LF.acrf">
            <def:PDFPageRef PageRefs="22 23" Type="PhysicalRef"/>
          </def:DocumentRef>
        </def:Origin>
      </ItemDef>
      <ItemDef OID="IT.AE.AEENTPT" Name="AEENTPT" DataType="date" SASFieldName="AEENTPT">
        <Description>
          <TranslatedText xml:lang="en">End Reference Time Point</TranslatedText>
        </Description>
        <def:Origin Type="Derived" Source="Sponsor"/>
      </ItemDef>
      <ItemDef OID="IT.CM.STUDYID" Name="STUDYID" DataType="text" Length="12" SASFieldName="STUDYID">
        <Description>
          <TranslatedText xml:lang="en">Study Identifier</TranslatedText>
        </Description>
        <def:Origin Type="Protocol" Source="Sponsor"/>
      </ItemDef>
      <ItemDef OID="IT.CM.DOMAIN" Name="DOMAIN" DataType="text" Length="2" SASFieldName="DOMAIN">
        <Description>
          <TranslatedText xml:lang="en">Domain Abbreviation</TranslatedText>
        </Description>
        <CodeListRef CodeListOID="CL.DOMAIN_CM"/>
        <def:Origin Type="Assigned" Source="Sponsor"/>
      </ItemDef>
      <ItemDef OID="IT.CM.USUBJID" Name="USUBJID" DataType="text" Length="8" SASFieldName="USUBJID">
        <Description>
          <TranslatedText xml:lang="en">Unique Subject Identifier</TranslatedText>
        </Description>
        <def:Origin Type="Assigned" Source="Sponsor"/>
      </ItemDef>
      <ItemDef OID="IT.CM.CMSEQ" Name="CMSEQ" DataType="integer" Length="3" SASFieldName="CMSEQ">
        <Description>
          <TranslatedText xml:lang="en">Sequence Number</TranslatedText>
        </Description>
        <def:Origin Type="Derived" Source="Sponsor"/>
      </ItemDef>
      <ItemDef OID="IT.CM.CMTRT" Name="CMTRT" DataType="text" Length="200" SASFieldName="CMTRT">
        <Description>
          <TranslatedText xml:lang="en">Reported Name of Drug, Med, or Therapy</TranslatedText>
        </Description>
        <def:Origin Type="Collected" Source="Investigator">
          <def:DocumentRef leafID="LF.acrf">
            <def:PDFPageRef PageRefs="25" Type="PhysicalRef"/>
          </def:DocumentRef>
        </def:Origin>
      </ItemDef>
      <ItemDef OID="IT.CM.CMINDC" Name="CMINDC" DataType="text" Length="200" SASFieldName="CMINDC"
        def:CommentOID="COM.CMINDC">
        <Description>
          <TranslatedText xml:lang="en">Indication</TranslatedText>
        </Description>
        <def:Origin Type="Collected" Source="Investigator">
          <def:DocumentRef leafID="LF.acrf">
            <def:PDFPageRef PageRefs="25" Type="PhysicalRef"/>
          </def:DocumentRef>
        </def:Origin>
      </ItemDef>
      <ItemDef OID="IT.CM.CMDOSE" Name="CMDOSE" DataType="float" Length="5" SignificantDigits="3" SASFieldName="CMDOSE">
        <Description>
          <TranslatedText xml:lang="en">Dose per Administration</TranslatedText>
        </Description>
        <def:Origin Type="Collected" Source="Investigator">
          <def:DocumentRef leafID="LF.acrf">
            <def:PDFPageRef PageRefs="25" Type="PhysicalRef"/>
          </def:DocumentRef>
        </def:Origin>
      </ItemDef>
      <ItemDef OID="IT.CM.CMDOSU" Name="CMDOSU" DataType="text" Length="6" SASFieldName="CMDOSU">
        <Description>
          <TranslatedText xml:lang="en">Dose Units</TranslatedText>
        </Description>
        <CodeListRef CodeListOID="CL.UNIT_CM"/>
        <def:Origin Type="Collected" Source="Investigator">
          <def:DocumentRef leafID="LF.acrf">
            <def:PDFPageRef PageRefs="25" Type="PhysicalRef"/>
          </def:DocumentRef>
        </def:Origin>
      </ItemDef>
      <ItemDef OID="IT.CM.CMDOSFRQ" Name="CMDOSFRQ" DataType="text" Length="3" SASFieldName="CMDOSFRQ">
        <Description>
          <TranslatedText xml:lang="en">Dosing Frequency per Interval</TranslatedText>
        </Description>
        <CodeListRef CodeListOID="CL.FREQ_CM"/>
        <def:Origin Type="Collected" Source="Investigator">
          <def:DocumentRef leafID="LF.acrf">
            <def:PDFPageRef PageRefs="25" Type="PhysicalRef"/>
          </def:DocumentRef>
        </def:Origin>
      </ItemDef>
      <ItemDef OID="IT.CM.CMROUTE" Name="CMROUTE" DataType="text" Length="24" SASFieldName="CMROUTE">
        <Description>
          <TranslatedText xml:lang="en">Route of Administration</TranslatedText>
        </Description>
        <CodeListRef CodeListOID="CL.ROUTE_CM"/>
        <def:Origin Type="Collected" Source="Investigator">
          <def:DocumentRef leafID="LF.acrf">
            <def:PDFPageRef PageRefs="25" Type="PhysicalRef"/>
          </def:DocumentRef>
        </def:Origin>
      </ItemDef>
      <ItemDef OID="IT.CM.EPOCH" Name="EPOCH" DataType="text" Length="9" SASFieldName="EPOCH">
        <Description>
          <TranslatedText xml:lang="en">Epoch</TranslatedText>
        </Description>
        <CodeListRef CodeListOID="CL.EPOCH"/>
        <def:Origin Type="Derived" Source="Sponsor"/>
      </ItemDef>
      <ItemDef OID="IT.CM.CMSTDTC" Name="CMSTDTC" DataType="partialDate" SASFieldName="CMSTDTC">
        <Description>
          <TranslatedText xml:lang="en">Start Date/Time of Medication</TranslatedText>
        </Description>
        <def:Origin Type="Collected" Source="Investigator">
          <def:DocumentRef leafID="LF.acrf">
            <def:PDFPageRef PageRefs="25" Type="PhysicalRef"/>
          </def:DocumentRef>
        </def:Origin>
      </ItemDef>
      <ItemDef OID="IT.CM.CMENDTC" Name="CMENDTC" DataType="partialDate" SASFieldName="CMENDTC">
        <Description>
          <TranslatedText xml:lang="en">End Date/Time of Medication</TranslatedText>
        </Description>
        <def:Origin Type="Collected" Source="Investigator">
          <def:DocumentRef leafID="LF.acrf">
            <def:PDFPageRef PageRefs="25" Type="PhysicalRef"/>
          </def:DocumentRef>
        </def:Origin>
      </ItemDef>
      <ItemDef OID="IT.CM.CMSTDY" Name="CMSTDY" DataType="integer" Length="8" SASFieldName="CMSTDY">
        <Description>
          <TranslatedText xml:lang="en">Study Day of Start of Medication</TranslatedText>
        </Description>
        <def:Origin Type="Derived" Source="Sponsor"/>
      </ItemDef>
      <ItemDef OID="IT.CM.CMENDY" Name="CMENDY" DataType="integer" Length="8" SASFieldName="CMENDY">
        <Description>
          <TranslatedText xml:lang="en">Study Day of End of Medication</TranslatedText>
        </Description>
        <def:Origin Type="Derived" Source="Sponsor"/>
      </ItemDef>
      <ItemDef OID="IT.CM.CMENRTPT" Name="CMENRTPT" DataType="text" Length="7" SASFieldName="CMENRTPT">
        <Description>
          <TranslatedText xml:lang="en">End Relative to Reference Time Point</TranslatedText>
        </Description>
        <CodeListRef CodeListOID="CL.ENRTPT_CM_AE"/>
        <def:Origin Type="Collected" Source="Investigator">
          <def:DocumentRef leafID="LF.acrf">
            <def:PDFPageRef PageRefs="25" Type="PhysicalRef"/>
          </def:DocumentRef>
        </def:Origin>
      </ItemDef>
      <ItemDef OID="IT.CM.CMENTPT" Name="CMENTPT" DataType="date" SASFieldName="CMENTPT">
        <Description>
          <TranslatedText xml:lang="en">End Reference Time Point</TranslatedText>
        </Description>
        <def:Origin Type="Derived" Source="Sponsor"/>
      </ItemDef>
      <ItemDef OID="IT.DI.STUDYID" Name="STUDYID" DataType="text" Length="12" SASFieldName="STUDYID">
        <Description>
          <TranslatedText xml:lang="en">Study Identifier</TranslatedText>
        </Description>
        <def:Origin Type="Assigned" Source="Sponsor"/>
      </ItemDef>
      <ItemDef OID="IT.DI.DOMAIN" Name="DOMAIN" DataType="text" Length="2" SASFieldName="DOMAIN">
        <Description>
          <TranslatedText xml:lang="en">Domain Abbreviation</TranslatedText>
        </Description>
        <CodeListRef CodeListOID="CL.DOMAIN_DI"/>
        <def:Origin Type="Assigned" Source="Sponsor"/>
      </ItemDef>
      <ItemDef OID="IT.DI.SPDEVID" Name="SPDEVID" DataType="text" Length="200" SASFieldName="SPDEVID">
        <Description>
          <TranslatedText xml:lang="en">Sponsor Device Identifier</TranslatedText>
        </Description>
        <def:Origin Type="Assigned" Source="Sponsor"/>
      </ItemDef>
      <ItemDef OID="IT.DI.DISEQ" Name="DISEQ" DataType="integer" Length="3" SASFieldName="DISEQ">
        <Description>
          <TranslatedText xml:lang="en">Sequence Number</TranslatedText>
        </Description>
        <def:Origin Type="Derived" Source="Sponsor"/>
      </ItemDef>
      <ItemDef OID="IT.DI.DIPARMCD" Name="DIPARMCD" DataType="text" Length="7" SASFieldName="DIPARMCD">
        <Description>
          <TranslatedText xml:lang="en">Device Identifier Element Short Name</TranslatedText>
        </Description>
        <CodeListRef CodeListOID="CL.DIPARMCD"/>
        <def:Origin Type="Assigned" Source="Sponsor"/>
      </ItemDef>
      <ItemDef OID="IT.DI.DIPARM" Name="DIPARM" DataType="text" Length="13" SASFieldName="DIPARM">
        <Description>
          <TranslatedText xml:lang="en">Device Identifier Element Name</TranslatedText>
        </Description>
        <CodeListRef CodeListOID="CL.DIPARM"/>
        <def:Origin Type="Assigned" Source="Sponsor"/>
      </ItemDef>
      <ItemDef OID="IT.DI.DIVAL" Name="DIVAL" DataType="text" Length="200" SASFieldName="DIVAL">
        <Description>
          <TranslatedText xml:lang="en">Device Identifier Element Value</TranslatedText>
        </Description>
        <def:Origin Type="Assigned" Source="Sponsor"/>
      </ItemDef>
      <ItemDef OID="IT.DM.STUDYID" Name="STUDYID" DataType="text" Length="12" SASFieldName="STUDYID">
        <Description>
          <TranslatedText xml:lang="en">Study Identifier</TranslatedText>
        </Description>
        <def:Origin Type="Protocol" Source="Sponsor"/>
      </ItemDef>
      <ItemDef OID="IT.DM.DOMAIN" Name="DOMAIN" DataType="text" Length="2" SASFieldName="DOMAIN">
        <Description>
          <TranslatedText xml:lang="en">Domain Abbreviation</TranslatedText>
        </Description>
        <CodeListRef CodeListOID="CL.DOMAIN_DM"/>
        <def:Origin Type="Assigned" Source="Sponsor"/>
      </ItemDef>
      <ItemDef OID="IT.DM.USUBJID" Name="USUBJID" DataType="text" Length="8" SASFieldName="USUBJID">
        <Description>
          <TranslatedText xml:lang="en">Unique Subject Identifier</TranslatedText>
        </Description>
        <def:Origin Type="Assigned" Source="Sponsor"/>
      </ItemDef>
      <ItemDef OID="IT.DM.SUBJID" Name="SUBJID" DataType="text" Length="4" SASFieldName="SUBJID">
        <Description>
          <TranslatedText xml:lang="en">Subject Identifier for the Study</TranslatedText>
        </Description>
        <def:Origin Type="Assigned" Source="Sponsor"/>
      </ItemDef>
      <ItemDef OID="IT.DM.RFSTDTC" Name="RFSTDTC" DataType="date" SASFieldName="RFSTDTC">
        <Description>
          <TranslatedText xml:lang="en">Subject Reference Start Date/Time</TranslatedText>
        </Description>
        <def:Origin Type="Derived" Source="Sponsor"/>
      </ItemDef>
      <ItemDef OID="IT.DM.RFENDTC" Name="RFENDTC" DataType="date" SASFieldName="RFENDTC">
        <Description>
          <TranslatedText xml:lang="en">Subject Reference End Date/Time</TranslatedText>
        </Description>
        <def:Origin Type="Derived" Source="Sponsor"/>
      </ItemDef>
      <ItemDef OID="IT.DM.RFXSTDTC" Name="RFXSTDTC" DataType="date" SASFieldName="RFXSTDTC">
        <Description>
          <TranslatedText xml:lang="en">Date/Time of First Study Treatment</TranslatedText>
        </Description>
        <def:Origin Type="Derived" Source="Sponsor"/>
      </ItemDef>
      <ItemDef OID="IT.DM.RFXENDTC" Name="RFXENDTC" DataType="date" SASFieldName="RFXENDTC">
        <Description>
          <TranslatedText xml:lang="en">Date/Time of Last Study Treatment</TranslatedText>
        </Description>
        <def:Origin Type="Derived" Source="Sponsor"/>
      </ItemDef>
      <ItemDef OID="IT.DM.RFICDTC" Name="RFICDTC" DataType="date" SASFieldName="RFICDTC">
        <Description>
          <TranslatedText xml:lang="en">Date/Time of Informed Consent</TranslatedText>
        </Description>
        <def:Origin Type="Collected" Source="Investigator">
          <def:DocumentRef leafID="LF.acrf">
            <def:PDFPageRef PageRefs="5" Type="PhysicalRef"/>
          </def:DocumentRef>
        </def:Origin>
      </ItemDef>
      <ItemDef OID="IT.DM.RFPENDTC" Name="RFPENDTC" DataType="date" SASFieldName="RFPENDTC">
        <Description>
          <TranslatedText xml:lang="en">Date/Time of End of Participation</TranslatedText>
        </Description>
        <def:Origin Type="Derived" Source="Sponsor"/>
      </ItemDef>
      <ItemDef OID="IT.DM.DTHDTC" Name="DTHDTC" DataType="date" SASFieldName="DTHDTC">
        <Description>
          <TranslatedText xml:lang="en">Date/Time of Death</TranslatedText>
        </Description>
        <def:Origin Type="Collected" Source="Investigator">
          <def:DocumentRef leafID="LF.acrf">
            <def:PDFPageRef PageRefs="26" Type="PhysicalRef"/>
          </def:DocumentRef>
        </def:Origin>
      </ItemDef>
      <ItemDef OID="IT.DM.DTHFL" Name="DTHFL" DataType="text" Length="1" SASFieldName="DTHFL">
        <Description>
          <TranslatedText xml:lang="en">Subject Death Flag</TranslatedText>
        </Description>
        <CodeListRef CodeListOID="CL.NY_YONLY"/>
        <def:Origin Type="Derived" Source="Sponsor"/>
      </ItemDef>
      <ItemDef OID="IT.DM.SITEID" Name="SITEID" DataType="text" Length="3" SASFieldName="SITEID">
        <Description>
          <TranslatedText xml:lang="en">Study Site Identifier</TranslatedText>
        </Description>
        <CodeListRef CodeListOID="CL.SITEID"/>
        <def:Origin Type="Assigned" Source="Sponsor"/>
      </ItemDef>
      <ItemDef OID="IT.DM.BRTHDTC" Name="BRTHDTC" DataType="date" SASFieldName="BRTHDTC">
        <Description>
          <TranslatedText xml:lang="en">Date/Time of Birth</TranslatedText>
        </Description>
        <def:Origin Type="Collected" Source="Investigator">
          <def:DocumentRef leafID="LF.acrf">
            <def:PDFPageRef PageRefs="5" Type="PhysicalRef"/>
          </def:DocumentRef>
        </def:Origin>
      </ItemDef>
      <ItemDef OID="IT.DM.AGE" Name="AGE" DataType="integer" Length="8" SASFieldName="AGE">
        <Description>
          <TranslatedText xml:lang="en">Age</TranslatedText>
        </Description>
        <def:Origin Type="Collected" Source="Investigator">
          <def:DocumentRef leafID="LF.acrf">
            <def:PDFPageRef PageRefs="5" Type="PhysicalRef"/>
          </def:DocumentRef>
        </def:Origin>
      </ItemDef>
      <ItemDef OID="IT.DM.AGEU" Name="AGEU" DataType="text" Length="5" SASFieldName="AGEU">
        <Description>
          <TranslatedText xml:lang="en">Age Units</TranslatedText>
        </Description>
        <CodeListRef CodeListOID="CL.AGEU_YEARS"/>
        <def:Origin Type="Assigned" Source="Sponsor"/>
      </ItemDef>
      <ItemDef OID="IT.DM.SEX" Name="SEX" DataType="text" Length="1" SASFieldName="SEX">
        <Description>
          <TranslatedText xml:lang="en">Sex</TranslatedText>
        </Description>
        <CodeListRef CodeListOID="CL.SEX"/>
        <def:Origin Type="Collected" Source="Investigator">
          <def:DocumentRef leafID="LF.acrf">
            <def:PDFPageRef PageRefs="5" Type="PhysicalRef"/>
          </def:DocumentRef>
        </def:Origin>
      </ItemDef>
      <ItemDef OID="IT.DM.RACE" Name="RACE" DataType="text" Length="41" SASFieldName="RACE">
        <Description>
          <TranslatedText xml:lang="en">Race</TranslatedText>
        </Description>
        <def:ValueListRef ValueListOID="VL.RACE"/>
      </ItemDef>
      <ItemDef OID="IT.DM.ETHNIC" Name="ETHNIC" DataType="text" Length="22" SASFieldName="ETHNIC">
        <Description>
          <TranslatedText xml:lang="en">Ethnicity</TranslatedText>
        </Description>
        <CodeListRef CodeListOID="CL.ETHNIC"/>
        <def:Origin Type="Collected" Source="Investigator">
          <def:DocumentRef leafID="LF.acrf">
            <def:PDFPageRef PageRefs="5" Type="PhysicalRef"/>
          </def:DocumentRef>
        </def:Origin>
      </ItemDef>
      <ItemDef OID="IT.DM.ARMCD" Name="ARMCD" DataType="text" Length="8" SASFieldName="ARMCD">
        <Description>
          <TranslatedText xml:lang="en">Planned Arm Code</TranslatedText>
        </Description>
        <CodeListRef CodeListOID="CL.ARMCD"/>
        <def:Origin Type="Assigned" Source="Sponsor"/>
      </ItemDef>
      <ItemDef OID="IT.DM.ARM" Name="ARM" DataType="text" Length="28" SASFieldName="ARM">
        <Description>
          <TranslatedText xml:lang="en">Description of Planned Arm</TranslatedText>
        </Description>
        <CodeListRef CodeListOID="CL.ARM"/>
        <def:Origin Type="Assigned" Source="Sponsor"/>
      </ItemDef>
      <ItemDef OID="IT.DM.ACTARMCD" Name="ACTARMCD" DataType="text" Length="8" SASFieldName="ACTARMCD">
        <Description>
          <TranslatedText xml:lang="en">Actual Arm Code</TranslatedText>
        </Description>
        <CodeListRef CodeListOID="CL.ARMCD"/>
        <def:Origin Type="Assigned" Source="Sponsor"/>
      </ItemDef>
      <ItemDef OID="IT.DM.ACTARM" Name="ACTARM" DataType="text" Length="28" SASFieldName="ACTARM">
        <Description>
          <TranslatedText xml:lang="en">Description of Actual Arm</TranslatedText>
        </Description>
        <CodeListRef CodeListOID="CL.ARM"/>
        <def:Origin Type="Assigned" Source="Sponsor"/>
      </ItemDef>
      <ItemDef OID="IT.DM.ARMNRS" Name="ARMNRS" DataType="text" Length="14" SASFieldName="ARMNRS">
        <Description>
          <TranslatedText xml:lang="en">Reason Arm and/or Actual Arm is Null</TranslatedText>
        </Description>
        <CodeListRef CodeListOID="CL.ARMNRS"/>
        <def:Origin Type="Assigned" Source="Sponsor"/>
      </ItemDef>
      <ItemDef OID="IT.DM.ACTARMUD" Name="ACTARMUD" DataType="text" Length="200" SASFieldName="ACTARMUD">
        <Description>
          <TranslatedText xml:lang="en">Description of Unplanned Actual Arm</TranslatedText>
        </Description>
        <def:Origin Type="Assigned" Source="Sponsor"/>
      </ItemDef>
      <ItemDef OID="IT.DM.COUNTRY" Name="COUNTRY" DataType="text" Length="3" SASFieldName="COUNTRY">
        <Description>
          <TranslatedText xml:lang="en">Country</TranslatedText>
        </Description>
        <CodeListRef CodeListOID="CL.ISO3166"/>
        <def:Origin Type="Assigned" Source="Sponsor"/>
      </ItemDef>
      <ItemDef OID="IT.SUPPDM.STUDYID" Name="STUDYID" DataType="text" Length="12" SASFieldName="STUDYID">
        <Description>
          <TranslatedText xml:lang="en">Study Identifier</TranslatedText>
        </Description>
        <def:Origin Type="Protocol" Source="Sponsor"/>
      </ItemDef>
      <ItemDef OID="IT.SUPPDM.RDOMAIN" Name="RDOMAIN" DataType="text" Length="6" SASFieldName="RDOMAIN">
        <Description>
          <TranslatedText xml:lang="en">Related Domain Abbreviation</TranslatedText>
        </Description>
        <CodeListRef CodeListOID="CL.DOMAIN_DM"/>
        <def:Origin Type="Assigned" Source="Sponsor"/>
      </ItemDef>
      <ItemDef OID="IT.SUPPDM.USUBJID" Name="USUBJID" DataType="text" Length="8" SASFieldName="USUBJID">
        <Description>
          <TranslatedText xml:lang="en">Unique Subject Identifier</TranslatedText>
        </Description>
        <def:Origin Type="Assigned" Source="Sponsor"/>
      </ItemDef>
      <ItemDef OID="IT.SUPPDM.IDVAR" Name="IDVAR" DataType="text" Length="200" SASFieldName="IDVAR">
        <Description>
          <TranslatedText xml:lang="en">Identifying Variable</TranslatedText>
        </Description>
        <def:Origin Type="Assigned" Source="Sponsor"/>
      </ItemDef>
      <ItemDef OID="IT.SUPPDM.IDVARVAL" Name="IDVARVAL" DataType="text" Length="200" SASFieldName="IDVARVAL">
        <Description>
          <TranslatedText xml:lang="en">Identifying Variable Value</TranslatedText>
        </Description>
        <def:Origin Type="Assigned" Source="Sponsor"/>
      </ItemDef>
      <ItemDef OID="IT.SUPPDM.QNAM" Name="QNAM" DataType="text" Length="5" SASFieldName="QNAM">
        <Description>
          <TranslatedText xml:lang="en">Qualifier Variable Name</TranslatedText>
        </Description>
        <def:Origin Type="Assigned" Source="Sponsor"/>
      </ItemDef>
      <ItemDef OID="IT.SUPPDM.QLABEL" Name="QLABEL" DataType="text" Length="40" SASFieldName="QLABEL">
        <Description>
          <TranslatedText xml:lang="en">Qualifier Variable Label</TranslatedText>
        </Description>
        <def:Origin Type="Assigned" Source="Sponsor"/>
      </ItemDef>
      <ItemDef OID="IT.SUPPDM.QVAL" Name="QVAL" DataType="text" Length="41" SASFieldName="QVAL">
        <Description>
          <TranslatedText xml:lang="en">Data Value</TranslatedText>
        </Description>
        <def:ValueListRef ValueListOID="VL.SUPPDM"/>
      </ItemDef>
      <ItemDef OID="IT.SUPPDM.QORIG" Name="QORIG" DataType="text" Length="13" SASFieldName="QORIG">
        <Description>
          <TranslatedText xml:lang="en">Origin</TranslatedText>
        </Description>
        <def:Origin Type="Assigned" Source="Sponsor"/>
      </ItemDef>
      <ItemDef OID="IT.SUPPDM.QEVAL" Name="QEVAL" DataType="text" Length="200" SASFieldName="QEVAL"
        def:CommentOID="COM.DM2">
        <Description>
          <TranslatedText xml:lang="en">Evaluator</TranslatedText>
        </Description>
        <def:Origin Type="Assigned" Source="Sponsor"/>
      </ItemDef>
      <ItemDef OID="IT.DS.STUDYID" Name="STUDYID" DataType="text" Length="12" SASFieldName="STUDYID">
        <Description>
          <TranslatedText xml:lang="en">Study Identifier</TranslatedText>
        </Description>
        <def:Origin Type="Protocol" Source="Sponsor"/>
      </ItemDef>
      <ItemDef OID="IT.DS.DOMAIN" Name="DOMAIN" DataType="text" Length="2" SASFieldName="DOMAIN">
        <Description>
          <TranslatedText xml:lang="en">Domain Abbreviation</TranslatedText>
        </Description>
        <CodeListRef CodeListOID="CL.DOMAIN_DS"/>
        <def:Origin Type="Assigned" Source="Sponsor"/>
      </ItemDef>
      <ItemDef OID="IT.DS.USUBJID" Name="USUBJID" DataType="text" Length="8" SASFieldName="USUBJID">
        <Description>
          <TranslatedText xml:lang="en">Unique Subject Identifier</TranslatedText>
        </Description>
        <def:Origin Type="Assigned" Source="Sponsor"/>
      </ItemDef>
      <ItemDef OID="IT.DS.DSSEQ" Name="DSSEQ" DataType="integer" Length="3" SASFieldName="DSSEQ">
        <Description>
          <TranslatedText xml:lang="en">Sequence Number</TranslatedText>
        </Description>
        <def:Origin Type="Derived" Source="Sponsor"/>
      </ItemDef>
      <ItemDef OID="IT.DS.DSLNKID" Name="DSLNKID" DataType="text" Length="50" SASFieldName="DSLNKID">
        <Description>
          <TranslatedText xml:lang="en">Link ID</TranslatedText>
        </Description>
        <def:Origin Type="Collected" Source="Investigator">
          <def:DocumentRef leafID="LF.acrf">
            <def:PDFPageRef PageRefs="27 28" Type="PhysicalRef"/>
          </def:DocumentRef>
        </def:Origin>
      </ItemDef>
      <ItemDef OID="IT.DS.DSTERM" Name="DSTERM" DataType="text" Length="200" SASFieldName="DSTERM">
        <Description>
          <TranslatedText xml:lang="en">Reported Term for the Disposition Event</TranslatedText>
        </Description>
        <def:ValueListRef ValueListOID="VL.DSTERM"/>
      </ItemDef>
      <ItemDef OID="IT.DS.DSDECOD" Name="DSDECOD" DataType="text" Length="29" SASFieldName="DSDECOD">
        <Description>
          <TranslatedText xml:lang="en">Standardized Disposition Term</TranslatedText>
        </Description>
        <def:ValueListRef ValueListOID="VL.DSDECOD"/>
      </ItemDef>
      <ItemDef OID="IT.DS.DSCAT" Name="DSCAT" DataType="text" Length="18" SASFieldName="DSCAT"
        def:CommentOID="COM.DS1">
        <Description>
          <TranslatedText xml:lang="en">Category for Disposition Event</TranslatedText>
        </Description>
        <CodeListRef CodeListOID="CL.DSCAT"/>
        <def:Origin Type="Assigned" Source="Sponsor">
          <def:DocumentRef leafID="LF.acrf">
            <def:PDFPageRef PageRefs="5 27 28" Type="PhysicalRef"/>
          </def:DocumentRef>
        </def:Origin>
      </ItemDef>
      <ItemDef OID="IT.DS.DSSCAT" Name="DSSCAT" DataType="text" Length="19" SASFieldName="DSSCAT"
        def:CommentOID="COM.DS1">
        <Description>
          <TranslatedText xml:lang="en">Subcategory for Disposition Event</TranslatedText>
        </Description>
        <CodeListRef CodeListOID="CL.DSSCAT"/>
        <def:Origin Type="Assigned" Source="Sponsor">
          <def:DocumentRef leafID="LF.acrf">
            <def:PDFPageRef PageRefs="27 28" Type="PhysicalRef"/>
          </def:DocumentRef>
        </def:Origin>
      </ItemDef>
      <ItemDef OID="IT.DS.EPOCH" Name="EPOCH" DataType="text" Length="9" SASFieldName="EPOCH">
        <Description>
          <TranslatedText xml:lang="en">Epoch</TranslatedText>
        </Description>
        <CodeListRef CodeListOID="CL.EPOCH"/>
        <def:Origin Type="Derived" Source="Sponsor"/>
      </ItemDef>
      <ItemDef OID="IT.DS.DSSTDTC" Name="DSSTDTC" DataType="date" SASFieldName="DSSTDTC">
        <Description>
          <TranslatedText xml:lang="en">Start Date/Time of Disposition Event</TranslatedText>
        </Description>
        <def:Origin Type="Collected" Source="Investigator">
          <def:DocumentRef leafID="LF.acrf">
            <def:PDFPageRef PageRefs="5 27 28" Type="PhysicalRef"/>
          </def:DocumentRef>
        </def:Origin>
      </ItemDef>
      <ItemDef OID="IT.DS.DSSTDY" Name="DSSTDY" DataType="integer" Length="8" SASFieldName="DSSTDY">
        <Description>
          <TranslatedText xml:lang="en">Study Day of Start of Disposition Event</TranslatedText>
        </Description>
        <def:Origin Type="Derived" Source="Sponsor"/>
      </ItemDef>
      <ItemDef OID="IT.EC.STUDYID" Name="STUDYID" DataType="text" Length="12" SASFieldName="STUDYID">
        <Description>
          <TranslatedText xml:lang="en">Study Identifier</TranslatedText>
        </Description>
        <def:Origin Type="Protocol" Source="Sponsor"/>
      </ItemDef>
      <ItemDef OID="IT.EC.DOMAIN" Name="DOMAIN" DataType="text" Length="2" SASFieldName="DOMAIN">
        <Description>
          <TranslatedText xml:lang="en">Domain Abbreviation</TranslatedText>
        </Description>
        <CodeListRef CodeListOID="CL.DOMAIN_EC"/>
        <def:Origin Type="Assigned" Source="Sponsor"/>
      </ItemDef>
      <ItemDef OID="IT.EC.USUBJID" Name="USUBJID" DataType="text" Length="8" SASFieldName="USUBJID">
        <Description>
          <TranslatedText xml:lang="en">Unique Subject Identifier</TranslatedText>
        </Description>
        <def:Origin Type="Assigned" Source="Sponsor"/>
      </ItemDef>
      <ItemDef OID="IT.EC.SPDEVID" Name="SPDEVID" DataType="text" Length="200" SASFieldName="SPDEVID">
        <Description>
          <TranslatedText xml:lang="en">Sponsor Device Identifier</TranslatedText>
        </Description>
        <def:Origin Type="Assigned" Source="Sponsor"/>
      </ItemDef>
      <ItemDef OID="IT.EC.ECSEQ" Name="ECSEQ" DataType="integer" Length="3" SASFieldName="ECSEQ">
        <Description>
          <TranslatedText xml:lang="en">Sequence Number</TranslatedText>
        </Description>
        <def:Origin Type="Derived" Source="Sponsor"/>
      </ItemDef>
      <ItemDef OID="IT.EC.ECTRT" Name="ECTRT" DataType="text" Length="10" SASFieldName="ECTRT">
        <Description>
          <TranslatedText xml:lang="en">Name of Treatment</TranslatedText>
        </Description>
        <CodeListRef CodeListOID="CL.EXTRT"/>
        <def:Origin Type="Assigned" Source="Sponsor"/>
      </ItemDef>
      <ItemDef OID="IT.EC.ECPRESP" Name="ECPRESP" DataType="text" Length="1" SASFieldName="ECPRESP">
        <Description>
          <TranslatedText xml:lang="en">Pre-Specified</TranslatedText>
        </Description>
        <CodeListRef CodeListOID="CL.NY_NY"/>
        <def:Origin Type="Assigned" Source="Sponsor"/>
      </ItemDef>
      <ItemDef OID="IT.EC.ECOCCUR" Name="ECOCCUR" DataType="text" Length="1" SASFieldName="ECOCCUR">
        <Description>
          <TranslatedText xml:lang="en">Occurrence</TranslatedText>
        </Description>
        <CodeListRef CodeListOID="CL.NY_NY"/>
        <def:Origin Type="Collected" Source="Investigator">
          <def:DocumentRef leafID="LF.acrf">
            <def:PDFPageRef PageRefs="14" Type="PhysicalRef"/>
          </def:DocumentRef>
        </def:Origin>
      </ItemDef>
      <ItemDef OID="IT.EC.ECDOSE" Name="ECDOSE" DataType="integer" Length="8" SASFieldName="ECDOSE">
        <Description>
          <TranslatedText xml:lang="en">Dose</TranslatedText>
        </Description>
        <def:Origin Type="Assigned" Source="Investigator">
          <def:DocumentRef leafID="LF.acrf">
            <def:PDFPageRef PageRefs="14" Type="PhysicalRef"/>
          </def:DocumentRef>
        </def:Origin>
      </ItemDef>
      <ItemDef OID="IT.EC.ECDOSU" Name="ECDOSU" DataType="text" Length="2" SASFieldName="ECDOSU">
        <Description>
          <TranslatedText xml:lang="en">Dose Units</TranslatedText>
        </Description>
        <CodeListRef CodeListOID="CL.UNIT_ECDOSU"/>
        <def:Origin Type="Assigned" Source="Investigator">
          <def:DocumentRef leafID="LF.acrf">
            <def:PDFPageRef PageRefs="14" Type="PhysicalRef"/>
          </def:DocumentRef>
        </def:Origin>
      </ItemDef>
      <ItemDef OID="IT.EC.ECDOSFRM" Name="ECDOSFRM" DataType="text" Length="9" SASFieldName="ECDOSFRM">
        <Description>
          <TranslatedText xml:lang="en">Dose Form</TranslatedText>
        </Description>
        <CodeListRef CodeListOID="CL.FRM_ECEX"/>
        <def:Origin Type="Assigned" Source="Sponsor"/>
      </ItemDef>
      <ItemDef OID="IT.EC.ECDOSFRQ" Name="ECDOSFRQ" DataType="text" Length="2" SASFieldName="ECDOSFRQ">
        <Description>
          <TranslatedText xml:lang="en">Dosing Frequency per Interval</TranslatedText>
        </Description>
        <CodeListRef CodeListOID="CL.FREQ_ECEX"/>
        <def:Origin Type="Assigned" Source="Sponsor"/>
      </ItemDef>
      <ItemDef OID="IT.EC.ECROUTE" Name="ECROUTE" DataType="text" Length="12" SASFieldName="ECROUTE">
        <Description>
          <TranslatedText xml:lang="en">Route of Administration</TranslatedText>
        </Description>
        <CodeListRef CodeListOID="CL.ROUTE_ECEX"/>
        <def:Origin Type="Assigned" Source="Sponsor"/>
      </ItemDef>
      <ItemDef OID="IT.EC.ECLOT" Name="ECLOT" DataType="text" Length="200" SASFieldName="ECLOT">
        <Description>
          <TranslatedText xml:lang="en">Lot Number</TranslatedText>
        </Description>
        <def:Origin Type="Collected" Source="Investigator">
          <def:DocumentRef leafID="LF.acrf">
            <def:PDFPageRef PageRefs="14" Type="PhysicalRef"/>
          </def:DocumentRef>
        </def:Origin>
      </ItemDef>
      <ItemDef OID="IT.EC.ECPSTRG" Name="ECPSTRG" DataType="float" Length="4" SignificantDigits="1" SASFieldName="ECPSTRG">
        <Description>
          <TranslatedText xml:lang="en">Pharmaceutical Strength</TranslatedText>
        </Description>
        <def:Origin Type="Assigned" Source="Sponsor"/>
      </ItemDef>
      <ItemDef OID="IT.EC.ECPSTRGU" Name="ECPSTRGU" DataType="text" Length="3" SASFieldName="ECPSTRGU">
        <Description>
          <TranslatedText xml:lang="en">Pharmaceutical Strength Units</TranslatedText>
        </Description>
        <CodeListRef CodeListOID="CL.UNIT_ECPSTRGU"/>
        <def:Origin Type="Assigned" Source="Sponsor"/>
      </ItemDef>
      <ItemDef OID="IT.EC.EPOCH" Name="EPOCH" DataType="text" Length="9" SASFieldName="EPOCH">
        <Description>
          <TranslatedText xml:lang="en">Epoch</TranslatedText>
        </Description>
        <CodeListRef CodeListOID="CL.EPOCH"/>
        <def:Origin Type="Derived" Source="Sponsor"/>
      </ItemDef>
      <ItemDef OID="IT.EC.ECSTDTC" Name="ECSTDTC" DataType="date" SASFieldName="ECSTDTC">
        <Description>
          <TranslatedText xml:lang="en">Start Date/Time of Treatment</TranslatedText>
        </Description>
        <def:Origin Type="Collected" Source="Investigator">
          <def:DocumentRef leafID="LF.acrf">
            <def:PDFPageRef PageRefs="14" Type="PhysicalRef"/>
          </def:DocumentRef>
        </def:Origin>
      </ItemDef>
      <ItemDef OID="IT.EC.ECENDTC" Name="ECENDTC" DataType="date" SASFieldName="ECENDTC">
        <Description>
          <TranslatedText xml:lang="en">End Date/Time of Treatment</TranslatedText>
        </Description>
        <def:Origin Type="Collected" Source="Investigator">
          <def:DocumentRef leafID="LF.acrf">
            <def:PDFPageRef PageRefs="14" Type="PhysicalRef"/>
          </def:DocumentRef>
        </def:Origin>
      </ItemDef>
      <ItemDef OID="IT.EC.ECSTDY" Name="ECSTDY" DataType="integer" Length="8" SASFieldName="ECSTDY">
        <Description>
          <TranslatedText xml:lang="en">Study Day of Start of Treatment</TranslatedText>
        </Description>
        <def:Origin Type="Derived" Source="Sponsor"/>
      </ItemDef>
      <ItemDef OID="IT.EC.ECENDY" Name="ECENDY" DataType="integer" Length="8" SASFieldName="ECENDY">
        <Description>
          <TranslatedText xml:lang="en">Study Day of End of Treatment</TranslatedText>
        </Description>
        <def:Origin Type="Derived" Source="Sponsor"/>
      </ItemDef>
      <ItemDef OID="IT.SUPPEC.STUDYID" Name="STUDYID" DataType="text" Length="12" SASFieldName="STUDYID">
        <Description>
          <TranslatedText xml:lang="en">Study Identifier</TranslatedText>
        </Description>
        <def:Origin Type="Protocol" Source="Sponsor"/>
      </ItemDef>
      <ItemDef OID="IT.SUPPEC.RDOMAIN" Name="RDOMAIN" DataType="text" Length="6" SASFieldName="RDOMAIN">
        <Description>
          <TranslatedText xml:lang="en">Related Domain Abbreviation</TranslatedText>
        </Description>
        <def:Origin Type="Assigned" Source="Sponsor"/>
      </ItemDef>
      <ItemDef OID="IT.SUPPEC.USUBJID" Name="USUBJID" DataType="text" Length="8" SASFieldName="USUBJID">
        <Description>
          <TranslatedText xml:lang="en">Unique Subject Identifier</TranslatedText>
        </Description>
        <def:Origin Type="Assigned" Source="Sponsor"/>
      </ItemDef>
      <ItemDef OID="IT.SUPPEC.IDVAR" Name="IDVAR" DataType="text" Length="200" SASFieldName="IDVAR">
        <Description>
          <TranslatedText xml:lang="en">Identifying Variable</TranslatedText>
        </Description>
        <def:Origin Type="Assigned" Source="Sponsor"/>
      </ItemDef>
      <ItemDef OID="IT.SUPPEC.IDVARVAL" Name="IDVARVAL" DataType="text" Length="200" SASFieldName="IDVARVAL">
        <Description>
          <TranslatedText xml:lang="en">Identifying Variable Value</TranslatedText>
        </Description>
        <def:Origin Type="Assigned" Source="Sponsor"/>
      </ItemDef>
      <ItemDef OID="IT.SUPPEC.QNAM" Name="QNAM" DataType="text" Length="8" SASFieldName="QNAM">
        <Description>
          <TranslatedText xml:lang="en">Qualifier Variable Name</TranslatedText>
        </Description>
        <def:Origin Type="Assigned" Source="Sponsor"/>
      </ItemDef>
      <ItemDef OID="IT.SUPPEC.QLABEL" Name="QLABEL" DataType="text" Length="40" SASFieldName="QLABEL">
        <Description>
          <TranslatedText xml:lang="en">Qualifier Variable Label</TranslatedText>
        </Description>
        <def:Origin Type="Assigned" Source="Sponsor"/>
      </ItemDef>
      <ItemDef OID="IT.SUPPEC.QVAL" Name="QVAL" DataType="text" Length="200" SASFieldName="QVAL">
        <Description>
          <TranslatedText xml:lang="en">Data Value</TranslatedText>
        </Description>
        <def:ValueListRef ValueListOID="VL.SUPPEC"/>
      </ItemDef>
      <ItemDef OID="IT.SUPPEC.QORIG" Name="QORIG" DataType="text" Length="13" SASFieldName="QORIG">
        <Description>
          <TranslatedText xml:lang="en">Origin</TranslatedText>
        </Description>
        <def:Origin Type="Assigned" Source="Sponsor"/>
      </ItemDef>
      <ItemDef OID="IT.SUPPEC.QEVAL" Name="QEVAL" DataType="text" Length="200" SASFieldName="QEVAL">
        <Description>
          <TranslatedText xml:lang="en">Evaluator</TranslatedText>
        </Description>
        <def:Origin Type="Assigned" Source="Sponsor"/>
      </ItemDef>
      <ItemDef OID="IT.EX.STUDYID" Name="STUDYID" DataType="text" Length="12" SASFieldName="STUDYID">
        <Description>
          <TranslatedText xml:lang="en">Study Identifier</TranslatedText>
        </Description>
        <def:Origin Type="Protocol" Source="Sponsor"/>
      </ItemDef>
      <ItemDef OID="IT.EX.DOMAIN" Name="DOMAIN" DataType="text" Length="2" SASFieldName="DOMAIN">
        <Description>
          <TranslatedText xml:lang="en">Domain Abbreviation</TranslatedText>
        </Description>
        <CodeListRef CodeListOID="CL.DOMAIN_EX"/>
        <def:Origin Type="Assigned" Source="Sponsor"/>
      </ItemDef>
      <ItemDef OID="IT.EX.USUBJID" Name="USUBJID" DataType="text" Length="8" SASFieldName="USUBJID">
        <Description>
          <TranslatedText xml:lang="en">Unique Subject Identifier</TranslatedText>
        </Description>
        <def:Origin Type="Assigned" Source="Sponsor"/>
      </ItemDef>
      <ItemDef OID="IT.EX.SPDEVID" Name="SPDEVID" DataType="text" Length="200" SASFieldName="SPDEVID">
        <Description>
          <TranslatedText xml:lang="en">Sponsor Device Identifier</TranslatedText>
        </Description>
        <def:Origin Type="Predecessor">
          <Description>
            <TranslatedText xml:lang="en">EC.SPDEVID</TranslatedText>
          </Description>
        </def:Origin>
      </ItemDef>
      <ItemDef OID="IT.EX.EXSEQ" Name="EXSEQ" DataType="integer" Length="3" SASFieldName="EXSEQ">
        <Description>
          <TranslatedText xml:lang="en">Sequence Number</TranslatedText>
        </Description>
        <def:Origin Type="Derived" Source="Sponsor"/>
      </ItemDef>
      <ItemDef OID="IT.EX.EXTRT" Name="EXTRT" DataType="text" Length="10" SASFieldName="EXTRT">
        <Description>
          <TranslatedText xml:lang="en">Name of Treatment</TranslatedText>
        </Description>
        <CodeListRef CodeListOID="CL.EXTRT"/>
        <def:Origin Type="Predecessor">
          <Description>
            <TranslatedText xml:lang="en">ECTRT</TranslatedText>
          </Description>
        </def:Origin>
      </ItemDef>
      <ItemDef OID="IT.EX.EXDOSE" Name="EXDOSE" DataType="integer" Length="8" SASFieldName="EXDOSE">
        <Description>
          <TranslatedText xml:lang="en">Dose</TranslatedText>
        </Description>
        <def:Origin Type="Derived" Source="Sponsor"/>
      </ItemDef>
      <ItemDef OID="IT.EX.EXDOSU" Name="EXDOSU" DataType="text" Length="2" SASFieldName="EXDOSU">
        <Description>
          <TranslatedText xml:lang="en">Dose Units</TranslatedText>
        </Description>
        <CodeListRef CodeListOID="CL.UNIT_EX"/>
        <def:Origin Type="Protocol" Source="Sponsor"/>
      </ItemDef>
      <ItemDef OID="IT.EX.EXDOSFRM" Name="EXDOSFRM" DataType="text" Length="9" SASFieldName="EXDOSFRM">
        <Description>
          <TranslatedText xml:lang="en">Dose Form</TranslatedText>
        </Description>
        <CodeListRef CodeListOID="CL.FRM_ECEX"/>
        <def:Origin Type="Predecessor">
          <Description>
            <TranslatedText xml:lang="en">ECDOSFRM</TranslatedText>
          </Description>
        </def:Origin>
      </ItemDef>
      <ItemDef OID="IT.EX.EXDOSFRQ" Name="EXDOSFRQ" DataType="text" Length="2" SASFieldName="EXDOSFRQ">
        <Description>
          <TranslatedText xml:lang="en">Dosing Frequency per Interval</TranslatedText>
        </Description>
        <CodeListRef CodeListOID="CL.FREQ_ECEX"/>
        <def:Origin Type="Predecessor">
          <Description>
            <TranslatedText xml:lang="en">ECDOSFRQ</TranslatedText>
          </Description>
        </def:Origin>
      </ItemDef>
      <ItemDef OID="IT.EX.EXROUTE" Name="EXROUTE" DataType="text" Length="12" SASFieldName="EXROUTE">
        <Description>
          <TranslatedText xml:lang="en">Route of Administration</TranslatedText>
        </Description>
        <CodeListRef CodeListOID="CL.ROUTE_ECEX"/>
        <def:Origin Type="Predecessor">
          <Description>
            <TranslatedText xml:lang="en">ECROUTE</TranslatedText>
          </Description>
        </def:Origin>
      </ItemDef>
      <ItemDef OID="IT.EX.EXLOT" Name="EXLOT" DataType="text" Length="200" SASFieldName="EXLOT">
        <Description>
          <TranslatedText xml:lang="en">Lot Number</TranslatedText>
        </Description>
        <def:Origin Type="Predecessor">
          <Description>
            <TranslatedText xml:lang="en">ECLOT</TranslatedText>
          </Description>
        </def:Origin>
      </ItemDef>
      <ItemDef OID="IT.EX.EPOCH" Name="EPOCH" DataType="text" Length="9" SASFieldName="EPOCH">
        <Description>
          <TranslatedText xml:lang="en">Epoch</TranslatedText>
        </Description>
        <CodeListRef CodeListOID="CL.EPOCH"/>
        <def:Origin Type="Predecessor">
          <Description>
            <TranslatedText xml:lang="en">EC.EPOCH</TranslatedText>
          </Description>
        </def:Origin>
      </ItemDef>
      <ItemDef OID="IT.EX.EXSTDTC" Name="EXSTDTC" DataType="date" SASFieldName="EXSTDTC">
        <Description>
          <TranslatedText xml:lang="en">Start Date/Time of Treatment</TranslatedText>
        </Description>
        <def:Origin Type="Predecessor">
          <Description>
            <TranslatedText xml:lang="en">ECSTDTC</TranslatedText>
          </Description>
        </def:Origin>
      </ItemDef>
      <ItemDef OID="IT.EX.EXENDTC" Name="EXENDTC" DataType="date" SASFieldName="EXENDTC">
        <Description>
          <TranslatedText xml:lang="en">End Date/Time of Treatment</TranslatedText>
        </Description>
        <def:Origin Type="Predecessor">
          <Description>
            <TranslatedText xml:lang="en">ECENDTC</TranslatedText>
          </Description>
        </def:Origin>
      </ItemDef>
      <ItemDef OID="IT.EX.EXSTDY" Name="EXSTDY" DataType="integer" Length="8" SASFieldName="EXSTDY">
        <Description>
          <TranslatedText xml:lang="en">Study Day of Start of Treatment</TranslatedText>
        </Description>
        <def:Origin Type="Predecessor">
          <Description>
            <TranslatedText xml:lang="en">ECSTDY</TranslatedText>
          </Description>
        </def:Origin>
      </ItemDef>
      <ItemDef OID="IT.EX.EXENDY" Name="EXENDY" DataType="integer" Length="8" SASFieldName="EXENDY">
        <Description>
          <TranslatedText xml:lang="en">Study Day of End of Treatment</TranslatedText>
        </Description>
        <def:Origin Type="Predecessor">
          <Description>
            <TranslatedText xml:lang="en">ECENDY</TranslatedText>
          </Description>
        </def:Origin>
      </ItemDef>
      <ItemDef OID="IT.FA.STUDYID" Name="STUDYID" DataType="text" Length="12" SASFieldName="STUDYID">
        <Description>
          <TranslatedText xml:lang="en">Study Identifier</TranslatedText>
        </Description>
        <def:Origin Type="Protocol" Source="Sponsor"/>
      </ItemDef>
      <ItemDef OID="IT.FA.DOMAIN" Name="DOMAIN" DataType="text" Length="2" SASFieldName="DOMAIN">
        <Description>
          <TranslatedText xml:lang="en">Domain Abbreviation</TranslatedText>
        </Description>
        <CodeListRef CodeListOID="CL.DOMAIN_FA"/>
        <def:Origin Type="Assigned" Source="Sponsor"/>
      </ItemDef>
      <ItemDef OID="IT.FA.USUBJID" Name="USUBJID" DataType="text" Length="8" SASFieldName="USUBJID">
        <Description>
          <TranslatedText xml:lang="en">Unique Subject Identifier</TranslatedText>
        </Description>
        <def:Origin Type="Assigned" Source="Sponsor"/>
      </ItemDef>
      <ItemDef OID="IT.FA.FASEQ" Name="FASEQ" DataType="integer" Length="3" SASFieldName="FASEQ">
        <Description>
          <TranslatedText xml:lang="en">Sequence Number</TranslatedText>
        </Description>
        <def:Origin Type="Derived" Source="Sponsor"/>
      </ItemDef>
      <ItemDef OID="IT.FA.FALNKGRP" Name="FALNKGRP" DataType="text" Length="200" SASFieldName="FALNKGRP">
        <Description>
          <TranslatedText xml:lang="en">Link Group ID</TranslatedText>
        </Description>
        <def:Origin Type="Collected" Source="Investigator">
          <def:DocumentRef leafID="LF.acrf">
            <def:PDFPageRef PageRefs="23" Type="PhysicalRef"/>
          </def:DocumentRef>
        </def:Origin>
      </ItemDef>
      <ItemDef OID="IT.FA.FATESTCD" Name="FATESTCD" DataType="text" Length="5" SASFieldName="FATESTCD">
        <Description>
          <TranslatedText xml:lang="en">Findings About Test Short Name</TranslatedText>
        </Description>
        <CodeListRef CodeListOID="CL.FATESTCD"/>
        <def:Origin Type="Assigned" Source="Sponsor"/>
      </ItemDef>
      <ItemDef OID="IT.FA.FATEST" Name="FATEST" DataType="text" Length="20" SASFieldName="FATEST">
        <Description>
          <TranslatedText xml:lang="en">Findings About Test Name</TranslatedText>
        </Description>
        <CodeListRef CodeListOID="CL.FATEST"/>
        <def:Origin Type="Assigned" Source="Sponsor"/>
      </ItemDef>
      <ItemDef OID="IT.FA.FAOBJ" Name="FAOBJ" DataType="text" Length="10" SASFieldName="FAOBJ">
        <Description>
          <TranslatedText xml:lang="en">Object of the Observation</TranslatedText>
        </Description>
        <CodeListRef CodeListOID="CL.FAOBJ"/>
        <def:Origin Type="Assigned" Source="Sponsor">
          <def:DocumentRef leafID="LF.acrf">
            <def:PDFPageRef PageRefs="24" Type="PhysicalRef"/>
          </def:DocumentRef>
        </def:Origin>
      </ItemDef>
      <ItemDef OID="IT.FA.FACAT" Name="FACAT" DataType="text" Length="23" SASFieldName="FACAT">
        <Description>
          <TranslatedText xml:lang="en">Category for Findings About</TranslatedText>
        </Description>
        <CodeListRef CodeListOID="CL.FACAT"/>
        <def:Origin Type="Assigned" Source="Sponsor">
          <def:DocumentRef leafID="LF.acrf">
            <def:PDFPageRef PageRefs="24" Type="PhysicalRef"/>
          </def:DocumentRef>
        </def:Origin>
      </ItemDef>
      <ItemDef OID="IT.FA.FAORRES" Name="FAORRES" DataType="text" Length="8" SASFieldName="FAORRES">
        <Description>
          <TranslatedText xml:lang="en">Result or Finding in Original Units</TranslatedText>
        </Description>
        <def:Origin Type="Collected" Source="Investigator">
          <def:DocumentRef leafID="LF.acrf">
            <def:PDFPageRef PageRefs="24" Type="PhysicalRef"/>
          </def:DocumentRef>
        </def:Origin>
        <def:ValueListRef ValueListOID="VL.FAORRES"/>
      </ItemDef>
      <ItemDef OID="IT.FA.FASTRESC" Name="FASTRESC" DataType="text" Length="8" SASFieldName="FASTRESC">
        <Description>
          <TranslatedText xml:lang="en">Character Result/Finding in Std Format</TranslatedText>
        </Description>
        <def:Origin Type="Predecessor">
          <Description>
            <TranslatedText xml:lang="en">FAORRES</TranslatedText>
          </Description>
        </def:Origin>
        <def:ValueListRef ValueListOID="VL.FASTRESC"/>
      </ItemDef>
      <ItemDef OID="IT.FA.FALOC" Name="FALOC" DataType="text" Length="3" SASFieldName="FALOC">
        <Description>
          <TranslatedText xml:lang="en">Location of the Finding About</TranslatedText>
        </Description>
        <CodeListRef CodeListOID="CL.LOC"/>
        <def:Origin Type="Assigned" Source="Sponsor"/>
      </ItemDef>
      <ItemDef OID="IT.FA.VISITNUM" Name="VISITNUM" DataType="float" Length="8" SignificantDigits="2" SASFieldName="VISITNUM"
        def:CommentOID="COM.FA1">
        <Description>
          <TranslatedText xml:lang="en">Visit Number</TranslatedText>
        </Description>
        <def:Origin Type="Assigned" Source="Sponsor"/>
      </ItemDef>
      <ItemDef OID="IT.FA.EPOCH" Name="EPOCH" DataType="text" Length="9" SASFieldName="EPOCH">
        <Description>
          <TranslatedText xml:lang="en">Epoch</TranslatedText>
        </Description>
        <CodeListRef CodeListOID="CL.EPOCH"/>
        <def:Origin Type="Assigned" Source="Sponsor"/>
      </ItemDef>
      <ItemDef OID="IT.FA.FADTC" Name="FADTC" DataType="date" SASFieldName="FADTC">
        <Description>
          <TranslatedText xml:lang="en">Date/Time of Collection</TranslatedText>
        </Description>
        <def:Origin Type="Collected" Source="Investigator">
          <def:DocumentRef leafID="LF.acrf">
            <def:PDFPageRef PageRefs="23" Type="PhysicalRef"/>
          </def:DocumentRef>
        </def:Origin>
      </ItemDef>
      <ItemDef OID="IT.FA.FADY" Name="FADY" DataType="integer" Length="8" SASFieldName="FADY">
        <Description>
          <TranslatedText xml:lang="en">Study Day of Collection</TranslatedText>
        </Description>
        <def:Origin Type="Derived" Source="Sponsor"/>
      </ItemDef>
      <ItemDef OID="IT.FT.STUDYID" Name="STUDYID" DataType="text" Length="12" SASFieldName="STUDYID">
        <Description>
          <TranslatedText xml:lang="en">Study Identifier</TranslatedText>
        </Description>
        <def:Origin Type="Protocol" Source="Sponsor"/>
      </ItemDef>
      <ItemDef OID="IT.FT.DOMAIN" Name="DOMAIN" DataType="text" Length="2" SASFieldName="DOMAIN">
        <Description>
          <TranslatedText xml:lang="en">Domain Abbreviation</TranslatedText>
        </Description>
        <CodeListRef CodeListOID="CL.DOMAIN_FT"/>
        <def:Origin Type="Assigned" Source="Sponsor"/>
      </ItemDef>
      <ItemDef OID="IT.FT.USUBJID" Name="USUBJID" DataType="text" Length="8" SASFieldName="USUBJID">
        <Description>
          <TranslatedText xml:lang="en">Unique Subject Identifier</TranslatedText>
        </Description>
        <def:Origin Type="Assigned" Source="Sponsor"/>
      </ItemDef>
      <ItemDef OID="IT.FT.FTSEQ" Name="FTSEQ" DataType="integer" Length="3" SASFieldName="FTSEQ">
        <Description>
          <TranslatedText xml:lang="en">Sequence Number</TranslatedText>
        </Description>
        <def:Origin Type="Derived" Source="Sponsor"/>
      </ItemDef>
      <ItemDef OID="IT.FT.FTTESTCD" Name="FTTESTCD" DataType="text" Length="7" SASFieldName="FTTESTCD">
        <Description>
          <TranslatedText xml:lang="en">Short Name of Test</TranslatedText>
        </Description>
        <CodeListRef CodeListOID="CL.AVL02TC"/>
        <def:Origin Type="Assigned" Source="Sponsor"/>
      </ItemDef>
      <ItemDef OID="IT.FT.FTTEST" Name="FTTEST" DataType="text" Length="23" SASFieldName="FTTEST">
        <Description>
          <TranslatedText xml:lang="en">Name of Test</TranslatedText>
        </Description>
        <CodeListRef CodeListOID="CL.AVL02TT"/>
        <def:Origin Type="Assigned" Source="Sponsor"/>
      </ItemDef>
      <ItemDef OID="IT.FT.FTCAT" Name="FTCAT" DataType="text" Length="8" SASFieldName="FTCAT">
        <Description>
          <TranslatedText xml:lang="en">Category</TranslatedText>
        </Description>
        <CodeListRef CodeListOID="CL.FTCAT"/>
        <def:Origin Type="Assigned" Source="Sponsor">
          <def:DocumentRef leafID="LF.acrf">
            <def:PDFPageRef PageRefs="17" Type="PhysicalRef"/>
          </def:DocumentRef>
        </def:Origin>
      </ItemDef>
      <ItemDef OID="IT.FT.FTSCAT" Name="FTSCAT" DataType="text" Length="200" SASFieldName="FTSCAT">
        <Description>
          <TranslatedText xml:lang="en">Subcategory</TranslatedText>
        </Description>
        <def:Origin Type="Assigned" Source="Sponsor">
          <def:DocumentRef leafID="LF.acrf">
            <def:PDFPageRef PageRefs="17" Type="PhysicalRef"/>
          </def:DocumentRef>
        </def:Origin>
      </ItemDef>
      <ItemDef OID="IT.FT.FTORRES" Name="FTORRES" DataType="text" Length="12" SASFieldName="FTORRES">
        <Description>
          <TranslatedText xml:lang="en">Result or Finding in Original Units</TranslatedText>
        </Description>
        <def:ValueListRef ValueListOID="VL.FTORRES"/>
      </ItemDef>
      <ItemDef OID="IT.FT.FTSTRESC" Name="FTSTRESC" DataType="text" Length="200" SASFieldName="FTSTRESC">
        <Description>
          <TranslatedText xml:lang="en">Result or Finding in Standard Format</TranslatedText>
        </Description>
        <def:Origin Type="Predecessor">
          <Description>
            <TranslatedText xml:lang="en">FTORRES</TranslatedText>
          </Description>
        </def:Origin>
      </ItemDef>
      <ItemDef OID="IT.FT.FTSTRESN" Name="FTSTRESN" DataType="integer" Length="8" SASFieldName="FTSTRESN">
        <Description>
          <TranslatedText xml:lang="en">Numeric Result/Finding in Standard Units</TranslatedText>
        </Description>
        <def:Origin Type="Derived" Source="Sponsor"/>
      </ItemDef>
      <ItemDef OID="IT.FT.FTLOBXFL" Name="FTLOBXFL" DataType="text" Length="1" SASFieldName="FTLOBXFL">
        <Description>
          <TranslatedText xml:lang="en">Last Observation Before Exposure Flag</TranslatedText>
        </Description>
        <CodeListRef CodeListOID="CL.NY_YONLY"/>
        <def:Origin Type="Derived" Source="Sponsor"/>
      </ItemDef>
      <ItemDef OID="IT.FT.FTREPNUM" Name="FTREPNUM" DataType="integer" Length="8" SASFieldName="FTREPNUM">
        <Description>
          <TranslatedText xml:lang="en">Repetition Number</TranslatedText>
        </Description>
        <def:Origin Type="Assigned" Source="Sponsor">
          <def:DocumentRef leafID="LF.acrf">
            <def:PDFPageRef PageRefs="17 18" Type="PhysicalRef"/>
          </def:DocumentRef>
        </def:Origin>
      </ItemDef>
      <ItemDef OID="IT.FT.VISITNUM" Name="VISITNUM" DataType="float" Length="8" SignificantDigits="2" SASFieldName="VISITNUM">
        <Description>
          <TranslatedText xml:lang="en">Visit Number</TranslatedText>
        </Description>
        <def:Origin Type="Assigned" Source="Sponsor"/>
      </ItemDef>
      <ItemDef OID="IT.FT.VISIT" Name="VISIT" DataType="text" Length="200" SASFieldName="VISIT">
        <Description>
          <TranslatedText xml:lang="en">Visit Name</TranslatedText>
        </Description>
        <def:Origin Type="Assigned" Source="Sponsor"/>
      </ItemDef>
      <ItemDef OID="IT.FT.EPOCH" Name="EPOCH" DataType="text" Length="9" SASFieldName="EPOCH">
        <Description>
          <TranslatedText xml:lang="en">Epoch</TranslatedText>
        </Description>
        <CodeListRef CodeListOID="CL.EPOCH"/>
        <def:Origin Type="Derived" Source="Sponsor"/>
      </ItemDef>
      <ItemDef OID="IT.FT.FTDTC" Name="FTDTC" DataType="partialDatetime" SASFieldName="FTDTC"
        def:CommentOID="COM.DTC1">
        <Description>
          <TranslatedText xml:lang="en">Date/Time of Test</TranslatedText>
        </Description>
        <def:Origin Type="Collected" Source="Investigator">
          <def:DocumentRef leafID="LF.acrf">
            <def:PDFPageRef PageRefs="17 18" Type="PhysicalRef"/>
          </def:DocumentRef>
        </def:Origin>
      </ItemDef>
      <ItemDef OID="IT.FT.FTDY" Name="FTDY" DataType="integer" Length="8" SASFieldName="FTDY">
        <Description>
          <TranslatedText xml:lang="en">Study Day of Test</TranslatedText>
        </Description>
        <def:Origin Type="Derived" Source="Sponsor"/>
      </ItemDef>
      <ItemDef OID="IT.FT.FTTPT" Name="FTTPT" DataType="text" Length="200" SASFieldName="FTTPT">
        <Description>
          <TranslatedText xml:lang="en">Planned Time Point Name</TranslatedText>
        </Description>
        <def:Origin Type="Assigned" Source="Sponsor"/>
      </ItemDef>
      <ItemDef OID="IT.FT.FTTPTNUM" Name="FTTPTNUM" DataType="integer" Length="8" SASFieldName="FTTPTNUM">
        <Description>
          <TranslatedText xml:lang="en">Planned Time Point Number</TranslatedText>
        </Description>
        <def:Origin Type="Assigned" Source="Sponsor"/>
      </ItemDef>
      <ItemDef OID="IT.FT.FTELTM" Name="FTELTM" DataType="text" Length="200" SASFieldName="FTELTM">
        <Description>
          <TranslatedText xml:lang="en">Planned Elapsed Time from Time Point Ref</TranslatedText>
        </Description>
        <def:Origin Type="Assigned" Source="Sponsor">
          <def:DocumentRef leafID="LF.acrf">
            <def:PDFPageRef PageRefs="18" Type="PhysicalRef"/>
          </def:DocumentRef>
        </def:Origin>
      </ItemDef>
      <ItemDef OID="IT.FT.FTTPTREF" Name="FTTPTREF" DataType="text" Length="200" SASFieldName="FTTPTREF">
        <Description>
          <TranslatedText xml:lang="en">Time Point Reference</TranslatedText>
        </Description>
        <def:Origin Type="Assigned" Source="Sponsor"/>
      </ItemDef>
      <ItemDef OID="IT.IE.STUDYID" Name="STUDYID" DataType="text" Length="12" SASFieldName="STUDYID">
        <Description>
          <TranslatedText xml:lang="en">Study Identifier</TranslatedText>
        </Description>
        <def:Origin Type="Protocol" Source="Sponsor"/>
      </ItemDef>
      <ItemDef OID="IT.IE.DOMAIN" Name="DOMAIN" DataType="text" Length="2" SASFieldName="DOMAIN">
        <Description>
          <TranslatedText xml:lang="en">Domain Abbreviation</TranslatedText>
        </Description>
        <CodeListRef CodeListOID="CL.DOMAIN_IE"/>
        <def:Origin Type="Assigned" Source="Sponsor"/>
      </ItemDef>
      <ItemDef OID="IT.IE.USUBJID" Name="USUBJID" DataType="text" Length="8" SASFieldName="USUBJID">
        <Description>
          <TranslatedText xml:lang="en">Unique Subject Identifier</TranslatedText>
        </Description>
        <def:Origin Type="Assigned" Source="Sponsor"/>
      </ItemDef>
      <ItemDef OID="IT.IE.IESEQ" Name="IESEQ" DataType="integer" Length="3" SASFieldName="IESEQ">
        <Description>
          <TranslatedText xml:lang="en">Sequence Number</TranslatedText>
        </Description>
        <def:Origin Type="Derived" Source="Sponsor"/>
      </ItemDef>
      <ItemDef OID="IT.IE.IETESTCD" Name="IETESTCD" DataType="text" Length="7" SASFieldName="IETESTCD"
        def:CommentOID="COM.IE2">
        <Description>
          <TranslatedText xml:lang="en">Inclusion/Exclusion Criterion Short Name</TranslatedText>
        </Description>
        <CodeListRef CodeListOID="CL.IETESTCD"/>
        <def:Origin Type="Collected" Source="Investigator">
          <def:DocumentRef leafID="LF.acrf">
            <def:PDFPageRef PageRefs="6" Type="PhysicalRef"/>
          </def:DocumentRef>
        </def:Origin>
      </ItemDef>
      <ItemDef OID="IT.IE.IETEST" Name="IETEST" DataType="text" Length="196" SASFieldName="IETEST"
        def:CommentOID="COM.IE2">
        <Description>
          <TranslatedText xml:lang="en">Inclusion/Exclusion Criterion</TranslatedText>
        </Description>
        <CodeListRef CodeListOID="CL.IETEST"/>
        <def:Origin Type="Assigned" Source="Sponsor"/>
      </ItemDef>
      <ItemDef OID="IT.IE.IECAT" Name="IECAT" DataType="text" Length="9" SASFieldName="IECAT">
        <Description>
          <TranslatedText xml:lang="en">Inclusion/Exclusion Category</TranslatedText>
        </Description>
        <CodeListRef CodeListOID="CL.IECAT"/>
        <def:Origin Type="Collected" Source="Investigator">
          <def:DocumentRef leafID="LF.acrf">
            <def:PDFPageRef PageRefs="6" Type="PhysicalRef"/>
          </def:DocumentRef>
        </def:Origin>
      </ItemDef>
      <ItemDef OID="IT.IE.IEORRES" Name="IEORRES" DataType="text" Length="1" SASFieldName="IEORRES">
        <Description>
          <TranslatedText xml:lang="en">I/E Criterion Original Result</TranslatedText>
        </Description>
        <CodeListRef CodeListOID="CL.NY_NY"/>
        <def:Origin Type="Derived" Source="Sponsor">
          <def:DocumentRef leafID="LF.acrf">
            <def:PDFPageRef PageRefs="6" Type="PhysicalRef"/>
          </def:DocumentRef>
        </def:Origin>
      </ItemDef>
      <ItemDef OID="IT.IE.IESTRESC" Name="IESTRESC" DataType="text" Length="1" SASFieldName="IESTRESC">
        <Description>
          <TranslatedText xml:lang="en">I/E Criterion Result in Std Format</TranslatedText>
        </Description>
        <CodeListRef CodeListOID="CL.NY_NY"/>
        <def:Origin Type="Predecessor">
          <Description>
            <TranslatedText xml:lang="en">IEORRES</TranslatedText>
          </Description>
        </def:Origin>
      </ItemDef>
      <ItemDef OID="IT.IE.EPOCH" Name="EPOCH" DataType="text" Length="9" SASFieldName="EPOCH">
        <Description>
          <TranslatedText xml:lang="en">Epoch</TranslatedText>
        </Description>
        <CodeListRef CodeListOID="CL.EPOCH"/>
        <def:Origin Type="Derived" Source="Sponsor"/>
      </ItemDef>
      <ItemDef OID="IT.IE.IEDTC" Name="IEDTC" DataType="date" SASFieldName="IEDTC">
        <Description>
          <TranslatedText xml:lang="en">Date/Time of Collection</TranslatedText>
        </Description>
        <def:Origin Type="Collected" Source="Investigator">
          <def:DocumentRef leafID="LF.acrf">
            <def:PDFPageRef PageRefs="6" Type="PhysicalRef"/>
          </def:DocumentRef>
        </def:Origin>
      </ItemDef>
      <ItemDef OID="IT.IE.IEDY" Name="IEDY" DataType="integer" Length="8" SASFieldName="IEDY"
        def:CommentOID="COM.IE1">
        <Description>
          <TranslatedText xml:lang="en">Study Day of Collection</TranslatedText>
        </Description>
        <def:Origin Type="Derived" Source="Sponsor"/>
      </ItemDef>
      <ItemDef OID="IT.QSPH.STUDYID" Name="STUDYID" DataType="text" Length="12" SASFieldName="STUDYID">
        <Description>
          <TranslatedText xml:lang="en">Study Identifier</TranslatedText>
        </Description>
        <def:Origin Type="Protocol" Source="Sponsor"/>
      </ItemDef>
      <ItemDef OID="IT.QSPH.DOMAIN" Name="DOMAIN" DataType="text" Length="4" SASFieldName="DOMAIN">
        <Description>
          <TranslatedText xml:lang="en">Domain Abbreviation</TranslatedText>
        </Description>
        <CodeListRef CodeListOID="CL.DOMAIN_QS"/>
        <def:Origin Type="Assigned" Source="Sponsor"/>
      </ItemDef>
      <ItemDef OID="IT.QSPH.USUBJID" Name="USUBJID" DataType="text" Length="8" SASFieldName="USUBJID">
        <Description>
          <TranslatedText xml:lang="en">Unique Subject Identifier</TranslatedText>
        </Description>
        <def:Origin Type="Assigned" Source="Sponsor"/>
      </ItemDef>
      <ItemDef OID="IT.QSPH.QSSEQ" Name="QSSEQ" DataType="integer" Length="3" SASFieldName="QSSEQ">
        <Description>
          <TranslatedText xml:lang="en">Sequence Number</TranslatedText>
        </Description>
        <def:Origin Type="Derived" Source="Sponsor"/>
      </ItemDef>
      <ItemDef OID="IT.QSPH.QSTESTCD" Name="QSTESTCD" DataType="text" Length="7" SASFieldName="QSTESTCD">
        <Description>
          <TranslatedText xml:lang="en">Question Short Name</TranslatedText>
        </Description>
        <CodeListRef CodeListOID="CL.PHQ01C"/>
        <def:Origin Type="Assigned" Source="Sponsor"/>
      </ItemDef>
      <ItemDef OID="IT.QSPH.QSTEST" Name="QSTEST" DataType="text" Length="40" SASFieldName="QSTEST">
        <Description>
          <TranslatedText xml:lang="en">Question Name</TranslatedText>
        </Description>
        <CodeListRef CodeListOID="CL.PHQ01T"/>
        <def:Origin Type="Assigned" Source="Sponsor"/>
      </ItemDef>
      <ItemDef OID="IT.QSPH.QSCAT" Name="QSCAT" DataType="text" Length="5" SASFieldName="QSCAT">
        <Description>
          <TranslatedText xml:lang="en">Category of Question</TranslatedText>
        </Description>
        <CodeListRef CodeListOID="CL.QSCAT_PH"/>
        <def:Origin Type="Assigned" Source="Sponsor">
          <def:DocumentRef leafID="LF.acrf">
            <def:PDFPageRef PageRefs="15" Type="PhysicalRef"/>
          </def:DocumentRef>
        </def:Origin>
      </ItemDef>
      <ItemDef OID="IT.QSPH.QSORRES" Name="QSORRES" DataType="text" Length="23" SASFieldName="QSORRES">
        <Description>
          <TranslatedText xml:lang="en">Finding in Original Units</TranslatedText>
        </Description>
        <def:Origin Type="Collected" Source="Investigator">
          <def:DocumentRef leafID="LF.acrf">
            <def:PDFPageRef PageRefs="15" Type="PhysicalRef"/>
          </def:DocumentRef>
        </def:Origin>
        <def:ValueListRef ValueListOID="VL.QSORRES_PHQ"/>
      </ItemDef>
      <ItemDef OID="IT.QSPH.QSSTRESC" Name="QSSTRESC" DataType="text" Length="20" SASFieldName="QSSTRESC">
        <Description>
          <TranslatedText xml:lang="en">Character Result/Finding in Std Format</TranslatedText>
        </Description>
        <def:ValueListRef ValueListOID="VL.QSSTRESC_PHQ"/>
      </ItemDef>
      <ItemDef OID="IT.QSPH.QSSTRESN" Name="QSSTRESN" DataType="integer" Length="8" SASFieldName="QSSTRESN">
        <Description>
          <TranslatedText xml:lang="en">Numeric Finding in Standard Units</TranslatedText>
        </Description>
        <def:Origin Type="Derived" Source="Sponsor">
          <def:DocumentRef leafID="LF.acrf">
            <def:PDFPageRef PageRefs="15" Type="PhysicalRef"/>
          </def:DocumentRef>
        </def:Origin>
      </ItemDef>
      <ItemDef OID="IT.QSPH.QSLOBXFL" Name="QSLOBXFL" DataType="text" Length="1" SASFieldName="QSLOBXFL">
        <Description>
          <TranslatedText xml:lang="en">Last Observation Before Exposure Flag</TranslatedText>
        </Description>
        <CodeListRef CodeListOID="CL.NY_YONLY"/>
        <def:Origin Type="Derived" Source="Sponsor"/>
      </ItemDef>
      <ItemDef OID="IT.QSPH.VISITNUM" Name="VISITNUM" DataType="float" Length="8" SignificantDigits="2" SASFieldName="VISITNUM">
        <Description>
          <TranslatedText xml:lang="en">Visit Number</TranslatedText>
        </Description>
        <def:Origin Type="Assigned" Source="Sponsor"/>
      </ItemDef>
      <ItemDef OID="IT.QSPH.VISIT" Name="VISIT" DataType="text" Length="200" SASFieldName="VISIT">
        <Description>
          <TranslatedText xml:lang="en">Visit Name</TranslatedText>
        </Description>
        <def:Origin Type="Assigned" Source="Sponsor"/>
      </ItemDef>
      <ItemDef OID="IT.QSPH.EPOCH" Name="EPOCH" DataType="text" Length="9" SASFieldName="EPOCH">
        <Description>
          <TranslatedText xml:lang="en">Epoch</TranslatedText>
        </Description>
        <CodeListRef CodeListOID="CL.EPOCH"/>
        <def:Origin Type="Derived" Source="Sponsor"/>
      </ItemDef>
      <ItemDef OID="IT.QSPH.QSDTC" Name="QSDTC" DataType="date" SASFieldName="QSDTC">
        <Description>
          <TranslatedText xml:lang="en">Date/Time of Finding</TranslatedText>
        </Description>
        <def:Origin Type="Assigned" Source="Sponsor"/>
      </ItemDef>
      <ItemDef OID="IT.QSPH.QSDY" Name="QSDY" DataType="integer" Length="8" SASFieldName="QSDY">
        <Description>
          <TranslatedText xml:lang="en">Study Day of Finding</TranslatedText>
        </Description>
        <def:Origin Type="Derived" Source="Sponsor"/>
      </ItemDef>
      <ItemDef OID="IT.QSPH.QSEVLINT" Name="QSEVLINT" DataType="durationDatetime" SASFieldName="QSEVLINT">
        <Description>
          <TranslatedText xml:lang="en">Evaluation Interval</TranslatedText>
        </Description>
        <def:Origin Type="Assigned" Source="Sponsor">
          <def:DocumentRef leafID="LF.acrf">
            <def:PDFPageRef PageRefs="15" Type="PhysicalRef"/>
          </def:DocumentRef>
        </def:Origin>
      </ItemDef>
      <ItemDef OID="IT.QSSL.STUDYID" Name="STUDYID" DataType="text" Length="12" SASFieldName="STUDYID">
        <Description>
          <TranslatedText xml:lang="en">Study Identifier</TranslatedText>
        </Description>
        <def:Origin Type="Protocol" Source="Sponsor"/>
      </ItemDef>
      <ItemDef OID="IT.QSSL.DOMAIN" Name="DOMAIN" DataType="text" Length="4" SASFieldName="DOMAIN">
        <Description>
          <TranslatedText xml:lang="en">Domain Abbreviation</TranslatedText>
        </Description>
        <CodeListRef CodeListOID="CL.DOMAIN_QS"/>
        <def:Origin Type="Assigned" Source="Sponsor"/>
      </ItemDef>
      <ItemDef OID="IT.QSSL.USUBJID" Name="USUBJID" DataType="text" Length="8" SASFieldName="USUBJID">
        <Description>
          <TranslatedText xml:lang="en">Unique Subject Identifier</TranslatedText>
        </Description>
        <def:Origin Type="Assigned" Source="Sponsor"/>
      </ItemDef>
      <ItemDef OID="IT.QSSL.QSSEQ" Name="QSSEQ" DataType="integer" Length="3" SASFieldName="QSSEQ">
        <Description>
          <TranslatedText xml:lang="en">Sequence Number</TranslatedText>
        </Description>
        <def:Origin Type="Derived" Source="Sponsor"/>
      </ItemDef>
      <ItemDef OID="IT.QSSL.QSTESTCD" Name="QSTESTCD" DataType="text" Length="8" SASFieldName="QSTESTCD">
        <Description>
          <TranslatedText xml:lang="en">Question Short Name</TranslatedText>
        </Description>
        <CodeListRef CodeListOID="CL.SWLS01TC"/>
        <def:Origin Type="Assigned" Source="Sponsor"/>
      </ItemDef>
      <ItemDef OID="IT.QSSL.QSTEST" Name="QSTEST" DataType="text" Length="39" SASFieldName="QSTEST">
        <Description>
          <TranslatedText xml:lang="en">Question Name</TranslatedText>
        </Description>
        <CodeListRef CodeListOID="CL.SWLS01TN"/>
        <def:Origin Type="Assigned" Source="Sponsor"/>
      </ItemDef>
      <ItemDef OID="IT.QSSL.QSCAT" Name="QSCAT" DataType="text" Length="4" SASFieldName="QSCAT">
        <Description>
          <TranslatedText xml:lang="en">Category of Question</TranslatedText>
        </Description>
        <CodeListRef CodeListOID="CL.QSCAT_SL"/>
        <def:Origin Type="Assigned" Source="Sponsor">
          <def:DocumentRef leafID="LF.acrf">
            <def:PDFPageRef PageRefs="16" Type="PhysicalRef"/>
          </def:DocumentRef>
        </def:Origin>
      </ItemDef>
      <ItemDef OID="IT.QSSL.QSORRES" Name="QSORRES" DataType="text" Length="26" SASFieldName="QSORRES">
        <Description>
          <TranslatedText xml:lang="en">Finding in Original Units</TranslatedText>
        </Description>
        <CodeListRef CodeListOID="CL.SWLSR"/>
        <def:Origin Type="Collected" Source="Investigator">
          <def:DocumentRef leafID="LF.acrf">
            <def:PDFPageRef PageRefs="16" Type="PhysicalRef"/>
          </def:DocumentRef>
        </def:Origin>
      </ItemDef>
      <ItemDef OID="IT.QSSL.QSSTRESC" Name="QSSTRESC" DataType="text" Length="1" SASFieldName="QSSTRESC">
        <Description>
          <TranslatedText xml:lang="en">Character Result/Finding in Std Format</TranslatedText>
        </Description>
        <CodeListRef CodeListOID="CL.SWLSR_S"/>
        <def:Origin Type="Derived" Source="Sponsor">
          <def:DocumentRef leafID="LF.acrf">
            <def:PDFPageRef PageRefs="16" Type="PhysicalRef"/>
          </def:DocumentRef>
        </def:Origin>
      </ItemDef>
      <ItemDef OID="IT.QSSL.QSSTRESN" Name="QSSTRESN" DataType="integer" Length="8" SASFieldName="QSSTRESN">
        <Description>
          <TranslatedText xml:lang="en">Numeric Finding in Standard Units</TranslatedText>
        </Description>
        <def:Origin Type="Derived" Source="Sponsor">
          <def:DocumentRef leafID="LF.acrf">
            <def:PDFPageRef PageRefs="16" Type="PhysicalRef"/>
          </def:DocumentRef>
        </def:Origin>
      </ItemDef>
      <ItemDef OID="IT.QSSL.QSLOBXFL" Name="QSLOBXFL" DataType="text" Length="1" SASFieldName="QSLOBXFL">
        <Description>
          <TranslatedText xml:lang="en">Last Observation Before Exposure Flag</TranslatedText>
        </Description>
        <CodeListRef CodeListOID="CL.NY_YONLY"/>
        <def:Origin Type="Derived" Source="Sponsor"/>
      </ItemDef>
      <ItemDef OID="IT.QSSL.VISITNUM" Name="VISITNUM" DataType="float" Length="8" SignificantDigits="2" SASFieldName="VISITNUM">
        <Description>
          <TranslatedText xml:lang="en">Visit Number</TranslatedText>
        </Description>
        <def:Origin Type="Assigned" Source="Sponsor"/>
      </ItemDef>
      <ItemDef OID="IT.QSSL.VISIT" Name="VISIT" DataType="text" Length="200" SASFieldName="VISIT">
        <Description>
          <TranslatedText xml:lang="en">Visit Name</TranslatedText>
        </Description>
        <def:Origin Type="Assigned" Source="Sponsor"/>
      </ItemDef>
      <ItemDef OID="IT.QSSL.EPOCH" Name="EPOCH" DataType="text" Length="9" SASFieldName="EPOCH">
        <Description>
          <TranslatedText xml:lang="en">Epoch</TranslatedText>
        </Description>
        <CodeListRef CodeListOID="CL.EPOCH"/>
        <def:Origin Type="Derived" Source="Sponsor"/>
      </ItemDef>
      <ItemDef OID="IT.QSSL.QSDTC" Name="QSDTC" DataType="date" SASFieldName="QSDTC">
        <Description>
          <TranslatedText xml:lang="en">Date/Time of Finding</TranslatedText>
        </Description>
        <def:Origin Type="Assigned" Source="Sponsor"/>
      </ItemDef>
      <ItemDef OID="IT.QSSL.QSDY" Name="QSDY" DataType="integer" Length="8" SASFieldName="QSDY">
        <Description>
          <TranslatedText xml:lang="en">Study Day of Finding</TranslatedText>
        </Description>
        <def:Origin Type="Derived" Source="Sponsor"/>
      </ItemDef>
      <ItemDef OID="IT.RELREC.STUDYID" Name="STUDYID" DataType="text" Length="12" SASFieldName="STUDYID">
        <Description>
          <TranslatedText xml:lang="en">Study Identifier</TranslatedText>
        </Description>
        <def:Origin Type="Protocol" Source="Sponsor"/>
      </ItemDef>
      <ItemDef OID="IT.RELREC.RDOMAIN" Name="RDOMAIN" DataType="text" Length="6" SASFieldName="RDOMAIN">
        <Description>
          <TranslatedText xml:lang="en">Related Domain Abbreviation</TranslatedText>
        </Description>
        <CodeListRef CodeListOID="CL.RDOMAIN_RELREC"/>
        <def:Origin Type="Assigned" Source="Sponsor"/>
      </ItemDef>
      <ItemDef OID="IT.RELREC.USUBJID" Name="USUBJID" DataType="text" Length="8" SASFieldName="USUBJID">
        <Description>
          <TranslatedText xml:lang="en">Unique Subject Identifier</TranslatedText>
        </Description>
        <def:Origin Type="Assigned" Source="Sponsor"/>
      </ItemDef>
      <ItemDef OID="IT.RELREC.IDVAR" Name="IDVAR" DataType="text" Length="200" SASFieldName="IDVAR">
        <Description>
          <TranslatedText xml:lang="en">Identifying Variable</TranslatedText>
        </Description>
        <def:Origin Type="Assigned" Source="Sponsor"/>
      </ItemDef>
      <ItemDef OID="IT.RELREC.IDVARVAL" Name="IDVARVAL" DataType="text" Length="200" SASFieldName="IDVARVAL">
        <Description>
          <TranslatedText xml:lang="en">Identifying Variable Value</TranslatedText>
        </Description>
        <def:Origin Type="Assigned" Source="Sponsor"/>
      </ItemDef>
      <ItemDef OID="IT.RELREC.RELTYPE" Name="RELTYPE" DataType="text" Length="4" SASFieldName="RELTYPE">
        <Description>
          <TranslatedText xml:lang="en">Relationship Type</TranslatedText>
        </Description>
        <CodeListRef CodeListOID="CL.RELTYPE"/>
        <def:Origin Type="Assigned" Source="Sponsor"/>
      </ItemDef>
      <ItemDef OID="IT.RELREC.RELID" Name="RELID" DataType="text" Length="200" SASFieldName="RELID">
        <Description>
          <TranslatedText xml:lang="en">Relationship Identifier</TranslatedText>
        </Description>
        <def:Origin Type="Assigned" Source="Sponsor"/>
      </ItemDef>
      <ItemDef OID="IT.RS.STUDYID" Name="STUDYID" DataType="text" Length="12" SASFieldName="STUDYID">
        <Description>
          <TranslatedText xml:lang="en">Study Identifier</TranslatedText>
        </Description>
        <def:Origin Type="Protocol" Source="Sponsor"/>
      </ItemDef>
      <ItemDef OID="IT.RS.DOMAIN" Name="DOMAIN" DataType="text" Length="2" SASFieldName="DOMAIN">
        <Description>
          <TranslatedText xml:lang="en">Domain Abbreviation</TranslatedText>
        </Description>
        <CodeListRef CodeListOID="CL.DOMAIN_RS"/>
        <def:Origin Type="Assigned" Source="Sponsor"/>
      </ItemDef>
      <ItemDef OID="IT.RS.USUBJID" Name="USUBJID" DataType="text" Length="8" SASFieldName="USUBJID">
        <Description>
          <TranslatedText xml:lang="en">Unique Subject Identifier</TranslatedText>
        </Description>
        <def:Origin Type="Assigned" Source="Sponsor"/>
      </ItemDef>
      <ItemDef OID="IT.RS.RSSEQ" Name="RSSEQ" DataType="integer" Length="3" SASFieldName="RSSEQ">
        <Description>
          <TranslatedText xml:lang="en">Sequence Number</TranslatedText>
        </Description>
        <def:Origin Type="Derived" Source="Sponsor"/>
      </ItemDef>
      <ItemDef OID="IT.RS.RSTESTCD" Name="RSTESTCD" DataType="text" Length="8" SASFieldName="RSTESTCD">
        <Description>
          <TranslatedText xml:lang="en">Assessment Short Name</TranslatedText>
        </Description>
        <CodeListRef CodeListOID="CL.HAMD17C"/>
        <def:Origin Type="Assigned" Source="Sponsor"/>
      </ItemDef>
      <ItemDef OID="IT.RS.RSTEST" Name="RSTEST" DataType="text" Length="37" SASFieldName="RSTEST">
        <Description>
          <TranslatedText xml:lang="en">Assessment Name</TranslatedText>
        </Description>
        <CodeListRef CodeListOID="CL.HAMD17T"/>
        <def:Origin Type="Assigned" Source="Sponsor"/>
      </ItemDef>
      <ItemDef OID="IT.RS.RSCAT" Name="RSCAT" DataType="text" Length="7" SASFieldName="RSCAT">
        <Description>
          <TranslatedText xml:lang="en">Category for Assessment</TranslatedText>
        </Description>
        <CodeListRef CodeListOID="CL.RSCAT"/>
        <def:Origin Type="Assigned" Source="Sponsor">
          <def:DocumentRef leafID="LF.acrf">
            <def:PDFPageRef PageRefs="19" Type="PhysicalRef"/>
          </def:DocumentRef>
        </def:Origin>
      </ItemDef>
      <ItemDef OID="IT.RS.RSORRES" Name="RSORRES" DataType="text" Length="198" SASFieldName="RSORRES">
        <Description>
          <TranslatedText xml:lang="en">Result or Finding in Original Units</TranslatedText>
        </Description>
        <def:Origin Type="Collected" Source="Investigator">
          <def:DocumentRef leafID="LF.acrf">
            <def:PDFPageRef PageRefs="19" Type="PhysicalRef"/>
          </def:DocumentRef>
        </def:Origin>
        <def:ValueListRef ValueListOID="VL.RSORRES"/>
      </ItemDef>
      <ItemDef OID="IT.RS.RSSTRESC" Name="RSSTRESC" DataType="text" Length="8" SASFieldName="RSSTRESC">
        <Description>
          <TranslatedText xml:lang="en">Character Result/Finding in Std Format</TranslatedText>
        </Description>
        <def:Origin Type="Derived" Source="Sponsor"/>
        <def:ValueListRef ValueListOID="VL.RSSTRESC"/>
      </ItemDef>
      <ItemDef OID="IT.RS.RSSTRESN" Name="RSSTRESN" DataType="integer" Length="8" SASFieldName="RSSTRESN">
        <Description>
          <TranslatedText xml:lang="en">Numeric Result/Finding in Standard Units</TranslatedText>
        </Description>
        <def:Origin Type="Derived" Source="Sponsor"/>
      </ItemDef>
      <ItemDef OID="IT.RS.RSLOBXFL" Name="RSLOBXFL" DataType="text" Length="1" SASFieldName="RSLOBXFL">
        <Description>
          <TranslatedText xml:lang="en">Last Observation Before Exposure Flag</TranslatedText>
        </Description>
        <CodeListRef CodeListOID="CL.NY_YONLY"/>
        <def:Origin Type="Derived" Source="Sponsor"/>
      </ItemDef>
      <ItemDef OID="IT.RS.VISITNUM" Name="VISITNUM" DataType="float" Length="8" SignificantDigits="2" SASFieldName="VISITNUM">
        <Description>
          <TranslatedText xml:lang="en">Visit Number</TranslatedText>
        </Description>
        <def:Origin Type="Assigned" Source="Sponsor"/>
      </ItemDef>
      <ItemDef OID="IT.RS.VISIT" Name="VISIT" DataType="text" Length="200" SASFieldName="VISIT">
        <Description>
          <TranslatedText xml:lang="en">Visit Name</TranslatedText>
        </Description>
        <def:Origin Type="Assigned" Source="Sponsor"/>
      </ItemDef>
      <ItemDef OID="IT.RS.EPOCH" Name="EPOCH" DataType="text" Length="9" SASFieldName="EPOCH">
        <Description>
          <TranslatedText xml:lang="en">Epoch</TranslatedText>
        </Description>
        <CodeListRef CodeListOID="CL.EPOCH"/>
        <def:Origin Type="Derived" Source="Sponsor"/>
      </ItemDef>
      <ItemDef OID="IT.RS.RSDTC" Name="RSDTC" DataType="date" SASFieldName="RSDTC">
        <Description>
          <TranslatedText xml:lang="en">Date/Time of Assessment</TranslatedText>
        </Description>
        <def:Origin Type="Assigned" Source="Sponsor"/>
      </ItemDef>
      <ItemDef OID="IT.RS.RSDY" Name="RSDY" DataType="integer" Length="8" SASFieldName="RSDY">
        <Description>
          <TranslatedText xml:lang="en">Study Day of Assessment</TranslatedText>
        </Description>
        <def:Origin Type="Derived" Source="Sponsor"/>
      </ItemDef>
      <ItemDef OID="IT.RS.RSEVLINT" Name="RSEVLINT" DataType="durationDatetime" SASFieldName="RSEVLINT">
        <Description>
          <TranslatedText xml:lang="en">Evaluation Interval</TranslatedText>
        </Description>
        <def:Origin Type="Assigned" Source="Sponsor">
          <def:DocumentRef leafID="LF.acrf">
            <def:PDFPageRef PageRefs="19" Type="PhysicalRef"/>
          </def:DocumentRef>
        </def:Origin>
      </ItemDef>
      <ItemDef OID="IT.SE.STUDYID" Name="STUDYID" DataType="text" Length="12" SASFieldName="STUDYID">
        <Description>
          <TranslatedText xml:lang="en">Study Identifier</TranslatedText>
        </Description>
        <def:Origin Type="Protocol" Source="Sponsor"/>
      </ItemDef>
      <ItemDef OID="IT.SE.DOMAIN" Name="DOMAIN" DataType="text" Length="2" SASFieldName="DOMAIN">
        <Description>
          <TranslatedText xml:lang="en">Domain Abbreviation</TranslatedText>
        </Description>
        <CodeListRef CodeListOID="CL.DOMAIN_SE"/>
        <def:Origin Type="Assigned" Source="Sponsor"/>
      </ItemDef>
      <ItemDef OID="IT.SE.USUBJID" Name="USUBJID" DataType="text" Length="8" SASFieldName="USUBJID">
        <Description>
          <TranslatedText xml:lang="en">Unique Subject Identifier</TranslatedText>
        </Description>
        <def:Origin Type="Assigned" Source="Sponsor"/>
      </ItemDef>
      <ItemDef OID="IT.SE.SESEQ" Name="SESEQ" DataType="integer" Length="3" SASFieldName="SESEQ">
        <Description>
          <TranslatedText xml:lang="en">Sequence Number</TranslatedText>
        </Description>
        <def:Origin Type="Derived" Source="Sponsor"/>
      </ItemDef>
      <ItemDef OID="IT.SE.ETCD" Name="ETCD" DataType="text" Length="7" SASFieldName="ETCD">
        <Description>
          <TranslatedText xml:lang="en">Element Code</TranslatedText>
        </Description>
        <CodeListRef CodeListOID="CL.ETCD"/>
        <def:Origin Type="Assigned" Source="Sponsor"/>
      </ItemDef>
      <ItemDef OID="IT.SE.ELEMENT" Name="ELEMENT" DataType="text" Length="26" SASFieldName="ELEMENT">
        <Description>
          <TranslatedText xml:lang="en">Description of Element</TranslatedText>
        </Description>
        <CodeListRef CodeListOID="CL.ELEMENT"/>
        <def:Origin Type="Protocol" Source="Sponsor"/>
      </ItemDef>
      <ItemDef OID="IT.SE.EPOCH" Name="EPOCH" DataType="text" Length="9" SASFieldName="EPOCH">
        <Description>
          <TranslatedText xml:lang="en">Epoch</TranslatedText>
        </Description>
        <CodeListRef CodeListOID="CL.EPOCH"/>
        <def:Origin Type="Derived" Source="Sponsor"/>
      </ItemDef>
      <ItemDef OID="IT.SE.SESTDTC" Name="SESTDTC" DataType="date" SASFieldName="SESTDTC">
        <Description>
          <TranslatedText xml:lang="en">Start Date/Time of Element</TranslatedText>
        </Description>
        <def:Origin Type="Derived" Source="Sponsor"/>
      </ItemDef>
      <ItemDef OID="IT.SE.SEENDTC" Name="SEENDTC" DataType="date" SASFieldName="SEENDTC">
        <Description>
          <TranslatedText xml:lang="en">End Date/Time of Element</TranslatedText>
        </Description>
        <def:Origin Type="Derived" Source="Sponsor"/>
      </ItemDef>
      <ItemDef OID="IT.SE.SESTDY" Name="SESTDY" DataType="integer" Length="8" SASFieldName="SESTDY">
        <Description>
          <TranslatedText xml:lang="en">Study Day of Start of Element</TranslatedText>
        </Description>
        <def:Origin Type="Derived" Source="Sponsor"/>
      </ItemDef>
      <ItemDef OID="IT.SE.SEENDY" Name="SEENDY" DataType="integer" Length="8" SASFieldName="SEENDY">
        <Description>
          <TranslatedText xml:lang="en">Study Day of End of Element</TranslatedText>
        </Description>
        <def:Origin Type="Derived" Source="Sponsor"/>
      </ItemDef>
      <ItemDef OID="IT.SV.STUDYID" Name="STUDYID" DataType="text" Length="12" SASFieldName="STUDYID">
        <Description>
          <TranslatedText xml:lang="en">Study Identifier</TranslatedText>
        </Description>
        <def:Origin Type="Protocol" Source="Sponsor"/>
      </ItemDef>
      <ItemDef OID="IT.SV.DOMAIN" Name="DOMAIN" DataType="text" Length="2" SASFieldName="DOMAIN">
        <Description>
          <TranslatedText xml:lang="en">Domain Abbreviation</TranslatedText>
        </Description>
        <CodeListRef CodeListOID="CL.DOMAIN_SV"/>
        <def:Origin Type="Assigned" Source="Sponsor"/>
      </ItemDef>
      <ItemDef OID="IT.SV.USUBJID" Name="USUBJID" DataType="text" Length="8" SASFieldName="USUBJID">
        <Description>
          <TranslatedText xml:lang="en">Unique Subject Identifier</TranslatedText>
        </Description>
        <def:Origin Type="Assigned" Source="Sponsor"/>
      </ItemDef>
      <ItemDef OID="IT.SV.VISITNUM" Name="VISITNUM" DataType="float" Length="8" SignificantDigits="2" SASFieldName="VISITNUM">
        <Description>
          <TranslatedText xml:lang="en">Visit Number</TranslatedText>
        </Description>
        <def:Origin Type="Assigned" Source="Sponsor"/>
      </ItemDef>
      <ItemDef OID="IT.SV.VISIT" Name="VISIT" DataType="text" Length="200" SASFieldName="VISIT">
        <Description>
          <TranslatedText xml:lang="en">Visit Name</TranslatedText>
        </Description>
        <def:Origin Type="Assigned" Source="Sponsor"/>
      </ItemDef>
      <ItemDef OID="IT.SV.SVSTDTC" Name="SVSTDTC" DataType="date" SASFieldName="SVSTDTC">
        <Description>
          <TranslatedText xml:lang="en">Start Date/Time of Visit</TranslatedText>
        </Description>
        <def:Origin Type="Derived" Source="Sponsor"/>
      </ItemDef>
      <ItemDef OID="IT.SV.SVENDTC" Name="SVENDTC" DataType="date" SASFieldName="SVENDTC">
        <Description>
          <TranslatedText xml:lang="en">End Date/Time of Visit</TranslatedText>
        </Description>
        <def:Origin Type="Derived" Source="Sponsor"/>
      </ItemDef>
      <ItemDef OID="IT.SV.SVSTDY" Name="SVSTDY" DataType="integer" Length="8" SASFieldName="SVSTDY">
        <Description>
          <TranslatedText xml:lang="en">Study Day of Start of Visit</TranslatedText>
        </Description>
        <def:Origin Type="Derived" Source="Sponsor"/>
      </ItemDef>
      <ItemDef OID="IT.SV.SVENDY" Name="SVENDY" DataType="integer" Length="8" SASFieldName="SVENDY">
        <Description>
          <TranslatedText xml:lang="en">Study Day of End of Visit</TranslatedText>
        </Description>
        <def:Origin Type="Derived" Source="Sponsor"/>
      </ItemDef>
      <ItemDef OID="IT.SV.SVUPDES" Name="SVUPDES" DataType="text" Length="200" SASFieldName="SVUPDES">
        <Description>
          <TranslatedText xml:lang="en">Description of Unplanned Visit</TranslatedText>
        </Description>
        <def:Origin Type="Assigned" Source="Sponsor"/>
      </ItemDef>
      <ItemDef OID="IT.TA.STUDYID" Name="STUDYID" DataType="text" Length="12" SASFieldName="STUDYID">
        <Description>
          <TranslatedText xml:lang="en">Study Identifier</TranslatedText>
        </Description>
        <def:Origin Type="Protocol" Source="Sponsor"/>
      </ItemDef>
